mean_accelerometer_X,mean_accelerometer_Y,mean_accelerometer_Z,std_accelerometer_X,std_accelerometer_Y,std_accelerometer_Z,max_accelerometer_X,max_accelerometer_Y,max_accelerometer_Z,min_accelerometer_X,min_accelerometer_Y,min_accelerometer_Z,time_diff,activity
10.2615484,4.7079582,3.4629732000000004,3.9030374834080575,10.582506898069369,12.734224012446546,14.073117000000002,13.713987,22.237345,3.816358,-12.871228,-12.378023,0,running
5.016331599999999,11.088026799999998,4.0318356,8.117632464852566,13.250804873533522,11.051592893363305,19.009962,32.671276,18.579004,-0.871489,-2.710236,-6.971914999999999,0,running
5.792053,8.559750000000001,3.636313800000001,11.546087813594546,12.046400686537224,2.359897416011912,22.261288,25.924416,6.133945,-5.683835,-7.580042,0.067038,0,running
2.486139399999999,5.0939038,1.8109744,7.576701827151923,11.96331538076894,6.273454824338205,9.993398,16.050728,10.749966,-6.976703,-14.877569,-4.908113,0,running
3.9983172,6.4174184,0.0229842000000001,10.330663495667867,16.94701604908797,3.5041713493110898,18.722658,31.924286,5.631162000000001,-8.5473,-11.999739,-2.954445,0,running
1.623269,4.491522399999999,10.5986522,3.472557976430559,9.475978130947924,15.080676184601016,3.825935,18.918982,35.98964,-4.544194,-6.708553,-1.608903,0,running
10.8859562,6.792828999999999,2.6393678,7.1653163943865525,17.181748481327332,13.97762878302079,19.009962,32.671276,22.237345,-0.387861,-12.871228,-12.378023,0,running
2.2744918,11.3925692,4.229118000000001,6.053984228584486,8.60708651268777,9.165730445080523,10.596737,25.924416,18.579004,-5.683835,4.927267,-6.368576,0,running
4.5518568,5.768111,4.3938392,11.552369624255135,7.982540813300769,4.67995773421718,22.261288,12.215217,10.749966,-6.976703,-7.580042,-2.011129,0,running
6.143521799999999,6.9067934,0.5985503999999999,9.27753273785734,18.26134795811835,4.8183008437907136,18.722658,31.924286,5.631162000000001,-4.165911,-14.877569,-4.908113,0,running
1.9316422,1.826297,9.0740244,6.272122876946026,8.715135357420388,16.08464621246157,8.384495,10.989386,35.98964,-8.5473,-11.999739,-2.777274,0,running
5.132211,9.9397678,2.1203052,13.658457581175153,12.823544790004116,2.761404833884322,28.629864,26.125528,5.415684,-4.544194,-6.708553,-1.608903,0,running
7.0284186,12.5484898,4.7635038000000005,9.004990368150613,12.796667000388664,12.30543166861312,19.009962,32.671276,22.237345,-0.871489,-2.710236,-6.971914999999999,0,running
2.1423318,7.2592196,6.1253256,7.045862450380273,12.01002960084326,7.217104567547591,10.596737,25.924416,18.579004,-5.683835,-7.580042,0.067038,0,running
7.7715792,6.025727000000001,4.019386,10.449318166046655,12.303203697679216,5.161915150324587,22.261288,16.050728,10.749966,-6.976703,-14.877569,-2.011129,0,running
2.5340234,5.5737018,-1.1176133999999998,10.978547608994065,16.76654493557536,4.072221664657549,18.722658,31.924286,5.631162000000001,-8.5473,-11.999739,-4.908113,0,running
1.6127346,8.0311102,11.0794078,3.466622597672308,7.3026327372699775,14.625672552319644,3.825935,18.918982,35.98964,-4.544194,-0.0239419999999999,0.794875,0,running
5.59094,5.9376202,-0.3447647999999998,13.33742113381262,12.310230867510391,3.277876406284059,28.629864,26.125528,4.209007,-4.419696,-6.708553,-4.486733999999999,0,running
0.0775721999999998,5.665638800000001,1.8579006,3.882620853824862,5.478449529881216,10.403883206540758,4.012682,12.124237,18.579004,-5.683835,-2.710236,-6.971914999999999,0,running
8.066544799999999,9.8909262,5.772899400000001,9.691448583997992,11.99961335254056,3.054332619896743,22.261288,25.924416,10.749966,-4.548983,-7.580042,2.619257,0,running
1.0036495999999997,1.5840042,-0.9299078000000002,7.51838837302881,11.926028468428068,3.958106137842024,9.993398,16.050728,5.482722,-6.976703,-14.877569,-4.908113,0,running
5.1082692,7.479486200000001,7.8118012,9.849076988444589,16.175244641333286,16.050885963697976,18.722658,31.924286,35.98964,-8.5473,-11.999739,-2.777274,0,running
-0.0258572,5.4463302,4.2425256,4.07130930920026,9.141878889952093,5.094868847310135,3.20823,18.918982,11.942278,-4.544194,-6.708553,-1.608903,0,running
9.3297256,10.2356912,-0.2068587999999998,13.111030944676637,16.013974414822844,5.200615591882436,28.629864,27.710491,7.958327000000001,-2.748543,-8.178592,-4.668693,0,running
3.7158012,8.191042800000002,4.327759,5.97509495526579,12.209092621771845,9.165086266793455,10.596737,25.924416,18.579004,-5.683835,-7.580042,-6.368576,0,running
4.863103,4.3086056,4.5949522,11.63310583695616,11.093961932419536,4.705967203421918,22.261288,12.215217,10.749966,-6.976703,-14.877569,-2.011129,0,running
2.855804,11.1837952,-0.6138734000000001,11.213948547677507,13.85680909307257,3.970096427984628,18.722658,31.924286,5.631162000000001,-8.5473,-5.334281,-4.908113,0,running
2.7322634,1.8473660000000005,9.4408162,4.644387873091598,8.729396961797047,15.828345945616972,8.384495,10.989386,35.98964,-4.544194,-11.999739,-2.777274,0,running
6.6980188,8.5846496,0.972046,12.685966962240904,13.59765292318918,4.086942205869383,28.629864,26.125528,5.415684,-4.419696,-6.708553,-4.486733999999999,0,running
5.3141704,10.903195,-2.759077800000001,7.732739869757891,13.247531719018546,10.211004766988298,16.864758,27.710491,7.958327000000001,-2.748543,-8.178592,-18.957289000000003,0,running
5.792053,8.559750000000001,3.636313800000001,11.546087813594546,12.046400686537224,2.359897416011912,22.261288,25.924416,6.133945,-5.683835,-7.580042,0.067038,0,running
2.486139399999999,5.0939038,1.8109744,7.576701827151923,11.96331538076894,6.273454824338205,9.993398,16.050728,10.749966,-6.976703,-14.877569,-4.908113,0,running
3.9983172,6.4174184,0.0229842000000001,10.330663495667867,16.94701604908797,3.5041713493110898,18.722658,31.924286,5.631162000000001,-8.5473,-11.999739,-2.954445,0,running
1.623269,4.491522399999999,10.5986522,3.472557976430559,9.475978130947924,15.080676184601016,3.825935,18.918982,35.98964,-4.544194,-6.708553,-1.608903,0,running
5.072834800000001,5.643612399999999,-0.9567228,13.50241473199282,12.69917992809328,3.814568837389449,28.629864,26.125528,4.209007,-4.419696,-8.178592,-4.668693,0,running
10.9549094,15.932933600000002,-1.7506400000000006,9.117741652062302,6.792222316257199,10.46534392601882,23.530214,27.710491,7.958327000000001,2.542642,11.190498,-18.957289000000003,0,running
4.5518568,5.768111,4.3938392,11.552369624255135,7.982540813300769,4.67995773421718,22.261288,12.215217,10.749966,-6.976703,-7.580042,-2.011129,0,running
6.143521799999999,6.9067934,0.5985503999999999,9.27753273785734,18.26134795811835,4.8183008437907136,18.722658,31.924286,5.631162000000001,-4.165911,-14.877569,-4.908113,0,running
1.9316422,1.826297,9.0740244,6.272122876946026,8.715135357420388,16.08464621246157,8.384495,10.989386,35.98964,-8.5473,-11.999739,-2.777274,0,running
5.132211,9.9397678,2.1203052,13.658457581175153,12.823544790004116,2.761404833884322,28.629864,26.125528,5.415684,-4.544194,-6.708553,-1.608903,0,running
4.187938,7.903739,0.1350332000000003,7.483047526999109,13.820330392777247,5.380098299980652,16.864758,27.710491,7.958327000000001,-2.748543,-8.178592,-4.668693,0,running
12.0725228,10.3965814,-2.5378534000000004,9.574352185953924,13.773046941514425,10.80232250315046,23.530214,26.187778,10.357317,2.542642,-11.693281,-18.957289000000003,0,running
7.7715792,6.025727000000001,4.019386,10.449318166046655,12.303203697679216,5.161915150324587,22.261288,16.050728,10.749966,-6.976703,-14.877569,-2.011129,0,running
2.5340234,5.5737018,-1.1176133999999998,10.978547608994065,16.76654493557536,4.072221664657549,18.722658,31.924286,5.631162000000001,-8.5473,-11.999739,-4.908113,0,running
1.6127346,8.0311102,11.0794078,3.466622597672308,7.3026327372699775,14.625672552319644,3.825935,18.918982,35.98964,-4.544194,-0.0239419999999999,0.794875,0,running
5.59094,5.9376202,-0.3447647999999998,13.33742113381262,12.310230867510391,3.277876406284059,28.629864,26.125528,4.209007,-4.419696,-6.708553,-4.486733999999999,0,running
10.5699218,12.059115600000002,-3.2551564000000006,9.590142683335385,12.926520972670268,10.174590802202555,23.530214,27.710491,7.958327000000001,0.617704,-8.178592,-18.957289000000003,0,running
6.6070394,5.6867076,1.1386826,8.646195244271484,16.694325654054772,6.130879287363828,20.867863,26.187778,10.357317,-2.020706,-11.693281,-5.401319,0,running
1.0036495999999997,1.5840042,-0.9299078000000002,7.51838837302881,11.926028468428068,3.958106137842024,9.993398,16.050728,5.482722,-6.976703,-14.877569,-4.908113,0,running
5.1082692,7.479486200000001,7.8118012,9.849076988444589,16.175244641333286,16.050885963697976,18.722658,31.924286,35.98964,-8.5473,-11.999739,-2.777274,0,running
-0.0258572,5.4463302,4.2425256,4.07130930920026,9.141878889952093,5.094868847310135,3.20823,18.918982,11.942278,-4.544194,-6.708553,-1.608903,0,running
9.3297256,10.2356912,-0.2068587999999998,13.111030944676637,16.013974414822844,5.200615591882436,28.629864,27.710491,7.958327000000001,-2.748543,-8.178592,-4.668693,0,running
8.4831354,8.0521792,-4.001189600000001,8.784191544222542,11.163585459242148,8.956674131869587,23.530214,14.834473999999998,3.040636,2.542642,-11.693281,-18.957289000000003,0,running
3.753151,8.509950400000001,0.1905786000000001,10.806473382979922,13.68564646463397,6.920904110521312,20.867863,26.187778,10.357317,-6.847417,-11.372458,-7.091625,0,running
2.855804,11.1837952,-0.6138734000000001,11.213948547677507,13.85680909307257,3.970096427984628,18.722658,31.924286,5.631162000000001,-8.5473,-5.334281,-4.908113,0,running
2.7322634,1.8473660000000005,9.4408162,4.644387873091598,8.729396961797047,15.828345945616972,8.384495,10.989386,35.98964,-4.544194,-11.999739,-2.777274,0,running
6.6980188,8.5846496,0.972046,12.685966962240904,13.59765292318918,4.086942205869383,28.629864,26.125528,5.415684,-4.419696,-6.708553,-4.486733999999999,0,running
5.3141704,10.903195,-2.759077800000001,7.732739869757891,13.247531719018546,10.211004766988298,16.864758,27.710491,7.958327000000001,-2.748543,-8.178592,-18.957289000000003,0,running
9.8851802,10.2538868,1.4891938,11.526123013478434,13.719164425139228,5.6983429013011495,23.530214,26.187778,10.357317,-2.020706,-11.693281,-3.648763,0,running
5.8504716000000005,4.3775586,-2.0561402,10.986933770736645,16.711145397975024,4.149485970693623,22.596476000000003,29.745562,2.001553,-6.847417,-11.372458,-7.091625,0,running
6.811983000000001,14.808616,2.7092786,9.996604077552911,15.662337115590285,5.444634218821022,23.654713,29.022512,8.8777,-1.843535,-10.400413,-2.346318,0,running
4.6437936,1.0228031999999998,-2.0417750000000003,14.30403896298225,16.554067562604853,8.959409889087087,30.119057,23.142353,8.255207,-2.738967,-19.938911,-16.376339,0,running
2.3491906,4.0778046,0.3428498000000001,6.714240838910033,19.82566393575073,1.9722517118276763,12.909535,28.543673,2.226608,-4.165911,-16.098612,-2.715025,0,running
7.4957672,8.8872766,0.9452307999999998,14.323120749996583,13.794842348292686,4.374983638230628,30.674513,24.890121,7.354988,-8.006210000000001,-12.397177,-4.079719,0,running
4.0260898,6.760267800000001,-0.4663906,7.142075341100176,16.241293955814562,2.851968663619536,15.35641,25.665842,3.610456,-3.246537,-14.585477,-3.605668,0,running
7.1739858,2.302264,-1.6567872,10.166681857678013,15.85164737908827,1.0183889962178991,18.689138,22.256498,-0.7038949999999999,-1.345541,-20.618866,-3.394978,0,running
3.9983172,6.4174184,0.0229842000000001,10.330663495667867,16.94701604908797,3.5041713493110898,18.722658,31.924286,5.631162000000001,-8.5473,-11.999739,-2.954445,0,running
1.623269,4.491522399999999,10.5986522,3.472557976430559,9.475978130947924,15.080676184601016,3.825935,18.918982,35.98964,-4.544194,-6.708553,-1.608903,0,running
5.072834800000001,5.643612399999999,-0.9567228,13.50241473199282,12.69917992809328,3.814568837389449,28.629864,26.125528,4.209007,-4.419696,-8.178592,-4.668693,0,running
10.9549094,15.932933600000002,-1.7506400000000006,9.117741652062302,6.792222316257199,10.46534392601882,23.530214,27.710491,7.958327000000001,2.542642,11.190498,-18.957289000000003,0,running
6.023812,5.0958188,0.9500194,9.076543010587152,16.501997959374183,6.0791988807068,20.867863,26.187778,10.357317,-2.020706,-11.693281,-5.401319,0,running
5.415684400000001,5.1810526,-2.6518176,11.36455664485251,16.785377406182466,3.512419354398162,22.596476000000003,29.745562,2.001553,-6.847417,-10.630256,-7.091625,0,running
1.9316422,1.826297,9.0740244,6.272122876946026,8.715135357420388,16.08464621246157,8.384495,10.989386,35.98964,-8.5473,-11.999739,-2.777274,0,running
5.132211,9.9397678,2.1203052,13.658457581175153,12.823544790004116,2.761404833884322,28.629864,26.125528,5.415684,-4.544194,-6.708553,-1.608903,0,running
4.187938,7.903739,0.1350332000000003,7.483047526999109,13.820330392777247,5.380098299980652,16.864758,27.710491,7.958327000000001,-2.748543,-8.178592,-4.668693,0,running
12.0725228,10.3965814,-2.5378534000000004,9.574352185953924,13.773046941514425,10.80232250315046,23.530214,26.187778,10.357317,2.542642,-11.693281,-18.957289000000003,0,running
0.9270352,1.2526464000000002,-2.2208613999999995,5.982819115014067,11.397622713314048,3.960167794019693,7.1395100000000005,14.121001,1.910573,-6.847417,-11.372458,-7.091625,0,running
10.3439094,14.461935799999996,-1.8904616,10.60480531885321,16.439087634435925,4.878637550848219,22.596476000000003,29.745562,3.394978,-2.695871,-10.630256,-8.379706,0,running
1.6127346,8.0311102,11.0794078,3.466622597672308,7.3026327372699775,14.625672552319644,3.825935,18.918982,35.98964,-4.544194,-0.0239419999999999,0.794875,0,running
5.59094,5.9376202,-0.3447647999999998,13.33742113381262,12.310230867510391,3.277876406284059,28.629864,26.125528,4.209007,-4.419696,-6.708553,-4.486733999999999,0,running
10.5699218,12.059115600000002,-3.2551564000000006,9.590142683335385,12.926520972670268,10.174590802202555,23.530214,27.710491,7.958327000000001,0.617704,-8.178592,-18.957289000000003,0,running
6.6070394,5.6867076,1.1386826,8.646195244271484,16.694325654054772,6.130879287363828,20.867863,26.187778,10.357317,-2.020706,-11.693281,-5.401319,0,running
3.8833954,8.9543146,-1.265096,11.563760879219627,14.275359907706978,3.705607606519341,22.596476000000003,29.745562,2.001553,-6.847417,-10.098742,-7.091625,0,running
5.925170799999999,7.9918452,-1.3589488,8.9033035377078,14.52801694922458,5.0721347253700495,19.780895,28.830976,3.394978,-4.505887,-10.630256,-8.379706,0,running
-0.0258572,5.4463302,4.2425256,4.07130930920026,9.141878889952093,5.094868847310135,3.20823,18.918982,11.942278,-4.544194,-6.708553,-1.608903,0,running
9.3297256,10.2356912,-0.2068587999999998,13.111030944676637,16.013974414822844,5.200615591882436,28.629864,27.710491,7.958327000000001,-2.748543,-8.178592,-4.668693,0,running
8.4831354,8.0521792,-4.001189600000001,8.784191544222542,11.163585459242148,8.956674131869587,23.530214,14.834473999999998,3.040636,2.542642,-11.693281,-18.957289000000003,0,running
3.753151,8.509950400000001,0.1905786000000001,10.806473382979922,13.68564646463397,6.920904110521312,20.867863,26.187778,10.357317,-6.847417,-11.372458,-7.091625,0,running
7.735187200000001,6.675992199999999,-0.5544970000000001,9.216445564594885,17.136418806338657,3.3243960980818,22.596476000000003,29.745562,3.394978,-2.695871,-10.630256,-5.023035,0,running
4.9176908,9.6103254,-2.8682534000000004,9.16882355549932,13.57602474387942,4.373542716553744,19.780895,28.830976,1.637634,-4.505887,-6.253655,-8.379706,0,running
6.6980188,8.5846496,0.972046,12.685966962240904,13.59765292318918,4.086942205869383,28.629864,26.125528,5.415684,-4.419696,-6.708553,-4.486733999999999,0,running
5.3141704,10.903195,-2.759077800000001,7.732739869757891,13.247531719018546,10.211004766988298,16.864758,27.710491,7.958327000000001,-2.748543,-8.178592,-18.957289000000003,0,running
9.8851802,10.2538868,1.4891938,11.526123013478434,13.719164425139228,5.6983429013011495,23.530214,26.187778,10.357317,-2.020706,-11.693281,-3.648763,0,running
5.8504716000000005,4.3775586,-2.0561402,10.986933770736645,16.711145397975024,4.149485970693623,22.596476000000003,29.745562,2.001553,-6.847417,-11.372458,-7.091625,0,running
6.287174,8.8642922,-1.9632454,8.395466318862164,14.595579490301615,4.808264003738751,19.780895,28.830976,3.394978,-2.695871,-10.630256,-8.379706,0,running
2.8854923999999995,8.312668200000001,-0.7029372000000003,5.789452584723472,9.074414067110324,3.86251658525594,10.654198,16.567875,4.1707,-4.505887,-6.253655,-4.884171,0,running
5.072834800000001,5.643612399999999,-0.9567228,13.50241473199282,12.69917992809328,3.814568837389449,28.629864,26.125528,4.209007,-4.419696,-8.178592,-4.668693,0,running
10.9549094,15.932933600000002,-1.7506400000000006,9.117741652062302,6.792222316257199,10.46534392601882,23.530214,27.710491,7.958327000000001,2.542642,11.190498,-18.957289000000003,0,running
6.023812,5.0958188,0.9500194,9.076543010587152,16.501997959374183,6.0791988807068,20.867863,26.187778,10.357317,-2.020706,-11.693281,-5.401319,0,running
5.415684400000001,5.1810526,-2.6518176,11.36455664485251,16.785377406182466,3.512419354398162,22.596476000000003,29.745562,2.001553,-6.847417,-10.630256,-7.091625,0,running
4.6064446000000006,13.431471399999998,-1.331176,9.136256139565855,10.284345797821093,5.047375801479963,19.780895,28.830976,3.394978,-4.505887,1.7573439999999998,-8.379706,0,running
4.6332594,5.8159948,-0.6579264000000001,7.549466991658603,7.885683849497943,3.3148785992695573,11.63582,15.193604,4.1707,-6.708553,-6.253655,-4.290409,0,running
4.187938,7.903739,0.1350332000000003,7.483047526999109,13.820330392777247,5.380098299980652,16.864758,27.710491,7.958327000000001,-2.748543,-8.178592,-4.668693,0,running
12.0725228,10.3965814,-2.5378534000000004,9.574352185953924,13.773046941514425,10.80232250315046,23.530214,26.187778,10.357317,2.542642,-11.693281,-18.957289000000003,0,running
0.9270352,1.2526464000000002,-2.2208613999999995,5.982819115014067,11.397622713314048,3.960167794019693,7.1395100000000005,14.121001,1.910573,-6.847417,-11.372458,-7.091625,0,running
10.3439094,14.461935799999996,-1.8904616,10.60480531885321,16.439087634435925,4.878637550848219,22.596476000000003,29.745562,3.394978,-2.695871,-10.630256,-8.379706,0,running
1.2172126,5.625416199999999,-1.2095504,3.877191267481436,8.498504926917185,3.1669696398325007,6.306328,16.567875,1.637634,-4.505887,-6.253655,-4.884171,0,running
7.879796799999999,9.9905252,-1.4202404000000002,13.323467759711196,14.023467471226676,3.808171350841543,26.791117,30.597898,4.1707,-6.708553,-7.072471000000001,-5.947197,0,running
10.5699218,12.059115600000002,-3.2551564000000006,9.590142683335385,12.926520972670268,10.174590802202555,23.530214,27.710491,7.958327000000001,0.617704,-8.178592,-18.957289000000003,0,running
6.6070394,5.6867076,1.1386826,8.646195244271484,16.694325654054772,6.130879287363828,20.867863,26.187778,10.357317,-2.020706,-11.693281,-5.401319,0,running
3.8833954,8.9543146,-1.265096,11.563760879219627,14.275359907706978,3.705607606519341,22.596476000000003,29.745562,2.001553,-6.847417,-10.098742,-7.091625,0,running
5.925170799999999,7.9918452,-1.3589488,8.9033035377078,14.52801694922458,5.0721347253700495,19.780895,28.830976,3.394978,-4.505887,-10.630256,-8.379706,0,running
6.1138338,8.337567799999999,-1.6596602,5.096465628767961,9.070593081251728,3.7478421444406784,11.63582,16.567875,4.1707,0.6943189999999999,-6.253655,-4.884171,0,running
8.5654962,13.112564,-1.6836026,16.64212343162527,16.901662852791393,5.956885986959319,26.791117,30.775068,7.426814,-6.708553,-7.072471000000001,-7.781155,0,running
8.4831354,8.0521792,-4.001189600000001,8.784191544222542,11.163585459242148,8.956674131869587,23.530214,14.834473999999998,3.040636,2.542642,-11.693281,-18.957289000000003,0,running
3.753151,8.509950400000001,0.1905786000000001,10.806473382979922,13.68564646463397,6.920904110521312,20.867863,26.187778,10.357317,-6.847417,-11.372458,-7.091625,0,running
7.735187200000001,6.675992199999999,-0.5544970000000001,9.216445564594885,17.136418806338657,3.3243960980818,22.596476000000003,29.745562,3.394978,-2.695871,-10.630256,-5.023035,0,running
4.9176908,9.6103254,-2.8682534000000004,9.16882355549932,13.57602474387942,4.373542716553744,19.780895,28.830976,1.637634,-4.505887,-6.253655,-8.379706,0,running
2.7772742,5.6522316,-0.989284,8.15198630830402,8.201189723931662,3.813992162318704,11.63582,15.193604,4.1707,-6.708553,-7.072471000000001,-5.947197,0,running
12.0571998,14.505989200000002,0.0708683999999999,14.362960657028436,15.355426601140776,5.756207942091199,26.791117,30.775068,7.426814,-3.217807,-3.131616,-7.781155,0,running
9.8851802,10.2538868,1.4891938,11.526123013478434,13.719164425139228,5.6983429013011495,23.530214,26.187778,10.357317,-2.020706,-11.693281,-3.648763,0,running
5.8504716000000005,4.3775586,-2.0561402,10.986933770736645,16.711145397975024,4.149485970693623,22.596476000000003,29.745562,2.001553,-6.847417,-11.372458,-7.091625,0,running
6.287174,8.8642922,-1.9632454,8.395466318862164,14.595579490301615,4.808264003738751,19.780895,28.830976,3.394978,-2.695871,-10.630256,-8.379706,0,running
2.8854923999999995,8.312668200000001,-0.7029372000000003,5.789452584723472,9.074414067110324,3.86251658525594,10.654198,16.567875,4.1707,-4.505887,-6.253655,-4.884171,0,running
5.5918976,8.412267400000001,-0.7690176000000001,13.7046828192399,13.73253906175294,5.0719813059959415,26.791117,30.597898,7.426814,-6.708553,-7.072471000000001,-5.947197,0,running
14.074075400000002,9.8535766,-2.8242002000000004,12.37228815600026,14.025070341846073,4.539973496940671,26.503813,30.775068,3.409343,-3.217807,-3.131616,-7.781155,0,running
2.0149604000000005,6.839755000000001,5.042188800000001,3.752357265990047,17.815683532366066,4.716453237236823,6.421249,29.022512,8.8777,-2.738967,-10.400413,-0.325611,0,running
3.940856,0.3600881999999998,-2.7983426000000007,14.666686337224697,17.966242882168473,7.796874622772435,30.119057,23.142353,2.226608,-4.165911,-19.938911,-16.376339,0,running
3.0329748,9.5815954,1.4413094000000002,7.733957236811483,16.599510967596117,3.755929617085203,12.909535,28.543673,7.354988,-8.006210000000001,-16.098612,-2.715025,0,running
9.4436896,5.7738566,-0.4070143999999999,12.217179351543312,18.098180675765363,2.93514260009174,30.674513,24.890121,3.610456,1.187524,-14.585477,-4.079719,0,running
5.8351484,6.4260374,-1.9929334,9.965370492236216,12.120082132400457,1.8416480983919807,17.860744,25.665842,0.895431,-3.246537,-3.926491,-3.605668,0,running
10.1025734,13.939041800000002,1.8655622,9.014840113513872,21.24826827982938,5.091698192571286,18.689138,30.004135,10.548853,-0.143652,-20.618866,-1.489193,0,running
6.023812,5.0958188,0.9500194,9.076543010587152,16.501997959374183,6.0791988807068,20.867863,26.187778,10.357317,-2.020706,-11.693281,-5.401319,0,running
5.415684400000001,5.1810526,-2.6518176,11.36455664485251,16.785377406182466,3.512419354398162,22.596476000000003,29.745562,2.001553,-6.847417,-10.630256,-7.091625,0,running
4.6064446000000006,13.431471399999998,-1.331176,9.136256139565855,10.284345797821093,5.047375801479963,19.780895,28.830976,3.394978,-4.505887,1.7573439999999998,-8.379706,0,running
4.6332594,5.8159948,-0.6579264000000001,7.549466991658603,7.885683849497943,3.3148785992695573,11.63582,15.193604,4.1707,-6.708553,-6.253655,-4.290409,0,running
12.1060416,11.6942388,-1.8004396,14.29830127583946,18.11567509121881,5.918159550060459,26.791117,30.775068,7.426814,-2.973598,-7.072471000000001,-7.781155,0,running
7.9611998,3.185246200000001,-2.3405714,12.107914136224938,10.754679517586691,3.595276662525959,25.718515,16.247053,3.409343,-3.600879,-12.382812,-6.488286,0,running
0.9270352,1.2526464000000002,-2.2208613999999995,5.982819115014067,11.397622713314048,3.960167794019693,7.1395100000000005,14.121001,1.910573,-6.847417,-11.372458,-7.091625,0,running
10.3439094,14.461935799999996,-1.8904616,10.60480531885321,16.439087634435925,4.878637550848219,22.596476000000003,29.745562,3.394978,-2.695871,-10.630256,-8.379706,0,running
1.2172126,5.625416199999999,-1.2095504,3.877191267481436,8.498504926917185,3.1669696398325007,6.306328,16.567875,1.637634,-4.505887,-6.253655,-4.884171,0,running
7.879796799999999,9.9905252,-1.4202404000000002,13.323467759711196,14.023467471226676,3.808171350841543,26.791117,30.597898,4.1707,-6.708553,-7.072471000000001,-5.947197,0,running
8.7733128,8.064629,-0.0411801999999999,11.80054702540525,13.56872433273915,5.817585478283384,26.503813,30.775068,7.426814,-3.217807,-3.131616,-7.781155,0,running
7.2371932,3.1134200000000005,-2.8155810000000003,12.032788434870351,10.690766842284818,2.5885802143460808,25.718515,16.247053,0.737414,-3.600879,-12.382812,-6.488286,0,running
3.8833954,8.9543146,-1.265096,11.563760879219627,14.275359907706978,3.705607606519341,22.596476000000003,29.745562,2.001553,-6.847417,-10.098742,-7.091625,0,running
5.925170799999999,7.9918452,-1.3589488,8.9033035377078,14.52801694922458,5.0721347253700495,19.780895,28.830976,3.394978,-4.505887,-10.630256,-8.379706,0,running
6.1138338,8.337567799999999,-1.6596602,5.096465628767961,9.070593081251728,3.7478421444406784,11.63582,16.567875,4.1707,0.6943189999999999,-6.253655,-4.884171,0,running
8.5654962,13.112564,-1.6836026,16.64212343162527,16.901662852791393,5.956885986959319,26.791117,30.775068,7.426814,-6.708553,-7.072471000000001,-7.781155,0,running
8.053137,5.035485400000001,-1.7429788000000002,12.134055350692426,7.795413917059075,3.6135362057867497,25.718515,16.247053,3.409343,-3.600879,-3.131616,-6.488286,0,running
7.959284199999999,2.6786328000000004,1.4164098,7.871126904428564,13.21425359035722,6.366545201968663,18.650831,23.065739,12.3876,-3.203442,-12.382812,-3.44765,0,running
7.735187200000001,6.675992199999999,-0.5544970000000001,9.216445564594885,17.136418806338657,3.3243960980818,22.596476000000003,29.745562,3.394978,-2.695871,-10.630256,-5.023035,0,running
4.9176908,9.6103254,-2.8682534000000004,9.16882355549932,13.57602474387942,4.373542716553744,19.780895,28.830976,1.637634,-4.505887,-6.253655,-8.379706,0,running
2.7772742,5.6522316,-0.989284,8.15198630830402,8.201189723931662,3.813992162318704,11.63582,15.193604,4.1707,-6.708553,-7.072471000000001,-5.947197,0,running
12.0571998,14.505989200000002,0.0708683999999999,14.362960657028436,15.355426601140776,5.756207942091199,26.791117,30.775068,7.426814,-3.217807,-3.131616,-7.781155,0,running
9.952218000000002,1.5016434000000003,-2.8749572,10.52512884016355,10.669448972950493,2.58305510585299,25.718515,16.247053,0.737414,-3.600879,-12.382812,-6.488286,0,running
5.8064178,6.6147008,1.7525556000000002,8.230364654980555,12.412686894875852,6.171193416183883,18.650831,23.065739,12.3876,-3.203442,-7.996633,-2.504335,0,running
6.287174,8.8642922,-1.9632454,8.395466318862164,14.595579490301615,4.808264003738751,19.780895,28.830976,3.394978,-2.695871,-10.630256,-8.379706,0,running
2.8854923999999995,8.312668200000001,-0.7029372000000003,5.789452584723472,9.074414067110324,3.86251658525594,10.654198,16.567875,4.1707,-4.505887,-6.253655,-4.884171,0,running
5.5918976,8.412267400000001,-0.7690176000000001,13.7046828192399,13.73253906175294,5.0719813059959415,26.791117,30.597898,7.426814,-6.708553,-7.072471000000001,-5.947197,0,running
14.074075400000002,9.8535766,-2.8242002000000004,12.37228815600026,14.025070341846073,4.539973496940671,26.503813,30.775068,3.409343,-3.217807,-3.131616,-7.781155,0,running
3.5089422,-0.5975925999999998,-1.5361198,6.483036241447767,7.829615213786102,1.7714805873241175,10.534488,6.684612,0.737414,-3.600879,-12.382812,-3.44765,0,running
10.6685628,12.8922974,3.1871614,9.373182736467625,13.252007332674786,5.732498772861038,22.582111,25.321077,12.3876,1.000776,-7.996633,-2.442086,0,running
4.6064446000000006,13.431471399999998,-1.331176,9.136256139565855,10.284345797821093,5.047375801479963,19.780895,28.830976,3.394978,-4.505887,1.7573439999999998,-8.379706,0,running
4.6332594,5.8159948,-0.6579264000000001,7.549466991658603,7.885683849497943,3.3148785992695573,11.63582,15.193604,4.1707,-6.708553,-6.253655,-4.290409,0,running
12.1060416,11.6942388,-1.8004396,14.29830127583946,18.11567509121881,5.918159550060459,26.791117,30.775068,7.426814,-2.973598,-7.072471000000001,-7.781155,0,running
7.9611998,3.185246200000001,-2.3405714,12.107914136224938,10.754679517586691,3.595276662525959,25.718515,16.247053,3.409343,-3.600879,-12.382812,-6.488286,0,running
6.0525418,7.9276808,2.3884556000000003,8.237557038355193,10.711368060169193,5.782477042440489,18.650831,23.065739,12.3876,-3.203442,-2.30801,-2.504335,0,running
7.716033400000001,7.683472399999999,0.8801086,8.579426606947449,17.616211877754786,2.9316518374463056,22.582111,25.321077,4.563349,0.3830719999999999,-12.832921,-2.442086,0,running
1.2172126,5.625416199999999,-1.2095504,3.877191267481436,8.498504926917185,3.1669696398325007,6.306328,16.567875,1.637634,-4.505887,-6.253655,-4.884171,0,running
7.879796799999999,9.9905252,-1.4202404000000002,13.323467759711196,14.023467471226676,3.808171350841543,26.791117,30.597898,4.1707,-6.708553,-7.072471000000001,-5.947197,0,running
8.7733128,8.064629,-0.0411801999999999,11.80054702540525,13.56872433273915,5.817585478283384,26.503813,30.775068,7.426814,-3.217807,-3.131616,-7.781155,0,running
7.2371932,3.1134200000000005,-2.8155810000000003,12.032788434870351,10.690766842284818,2.5885802143460808,25.718515,16.247053,0.737414,-3.600879,-12.382812,-6.488286,0,running
7.5675926,7.36648,3.1660924,6.601343852314905,12.513635426999922,5.747249847800016,18.650831,23.065739,12.3876,1.000776,-7.996633,-2.442086,0,running
6.745903,8.458236000000001,-1.5993266,9.004324703761938,19.063325280853626,3.5896052351805063,22.582111,25.321077,3.241749,0.3830719999999999,-12.832921,-5.324704,0,running
6.1138338,8.337567799999999,-1.6596602,5.096465628767961,9.070593081251728,3.7478421444406784,11.63582,16.567875,4.1707,0.6943189999999999,-6.253655,-4.884171,0,running
8.5654962,13.112564,-1.6836026,16.64212343162527,16.901662852791393,5.956885986959319,26.791117,30.775068,7.426814,-6.708553,-7.072471000000001,-7.781155,0,running
8.053137,5.035485400000001,-1.7429788000000002,12.134055350692426,7.795413917059075,3.6135362057867497,25.718515,16.247053,3.409343,-3.600879,-3.131616,-6.488286,0,running
7.959284199999999,2.6786328000000004,1.4164098,7.871126904428564,13.21425359035722,6.366545201968663,18.650831,23.065739,12.3876,-3.203442,-12.382812,-3.44765,0,running
7.015010999999999,5.7125654,0.5142745999999999,9.038234479816786,15.835150639961034,2.665301894448038,22.582111,25.321077,4.563349,0.3830719999999999,-12.832921,-2.442086,0,running
7.79169,14.5730268,-0.9222464,9.800256767737263,15.69990873413402,5.089681375151228,25.244461,29.11828,5.7700260000000005,2.164359,-11.525687,-5.324704,0,running
2.7772742,5.6522316,-0.989284,8.15198630830402,8.201189723931662,3.813992162318704,11.63582,15.193604,4.1707,-6.708553,-7.072471000000001,-5.947197,0,running
12.0571998,14.505989200000002,0.0708683999999999,14.362960657028436,15.355426601140776,5.756207942091199,26.791117,30.775068,7.426814,-3.217807,-3.131616,-7.781155,0,running
9.952218000000002,1.5016434000000003,-2.8749572,10.52512884016355,10.669448972950493,2.58305510585299,25.718515,16.247053,0.737414,-3.600879,-12.382812,-6.488286,0,running
5.8064178,6.6147008,1.7525556000000002,8.230364654980555,12.412686894875852,6.171193416183883,18.650831,23.065739,12.3876,-3.203442,-7.996633,-2.504335,0,running
7.0475724,12.8051486,0.3035849999999998,8.918125063197774,15.515079755144743,3.87876124291229,22.582111,25.321077,4.563349,0.3830719999999999,-12.832921,-5.324704,0,running
6.245993400000001,6.6913146,-0.6560112,11.776598343173989,15.809503699371016,4.329618252427887,25.244461,29.11828,5.7700260000000005,-7.105989999999999,-11.525687,-4.951209,0,running
5.5918976,8.412267400000001,-0.7690176000000001,13.7046828192399,13.73253906175294,5.0719813059959415,26.791117,30.597898,7.426814,-6.708553,-7.072471000000001,-5.947197,0,running
14.074075400000002,9.8535766,-2.8242002000000004,12.37228815600026,14.025070341846073,4.539973496940671,26.503813,30.775068,3.409343,-3.217807,-3.131616,-7.781155,0,running
3.5089422,-0.5975925999999998,-1.5361198,6.483036241447767,7.829615213786102,1.7714805873241175,10.534488,6.684612,0.737414,-3.600879,-12.382812,-3.44765,0,running
10.6685628,12.8922974,3.1871614,9.373182736467625,13.252007332674786,5.732498772861038,22.582111,25.321077,12.3876,1.000776,-7.996633,-2.442086,0,running
2.8194122,6.1827866,-0.4481944,1.6470278795408109,17.12811627220201,4.91474550286109,4.505888,23.716963,5.7700260000000005,0.3830719999999999,-12.832921,-5.324704,0,running
7.3578606,6.924031199999999,0.4970364000000002,11.57074398353774,16.725361523851753,4.534559200251696,25.244461,29.11828,7.900866000000001,-7.105989999999999,-13.306973,-3.347094,0,running
-0.3371033999999999,0.5765239999999998,2.8950688,3.380539552998131,15.82258641993429,5.021394285047302,5.214572,20.910957,8.30788,-2.738967,-19.938911,-2.284068,0,running
7.444051800000001,11.9259976,-2.389413,14.286636669095904,17.46873173720871,7.880569190348499,30.119057,28.543673,2.226608,-4.165911,-15.916653,-16.376339,0,running
8.187212599999999,3.0530860000000004,0.7929595999999999,14.022758550587874,17.304491230391736,4.512201436615757,30.674513,24.890121,7.354988,-8.006210000000001,-16.098612,-4.079719,0,running
4.912902,7.623138,-0.1359908,6.230391973028504,16.48671561151781,2.4670840753218566,15.35641,25.665842,3.610456,0.550666,-14.585477,-2.499546,0,running
6.3628304,8.177635200000001,-2.0800822,10.934270904967937,9.33805604161076,1.3250113076952212,18.689138,22.256498,-0.7038949999999999,-3.246537,-3.758896,-3.605668,0,running
9.26173,5.852386399999999,2.888365,8.198157381187343,23.848874064346063,5.0008936600248255,15.629349,30.004135,10.548853,-0.205901,-20.618866,-1.489193,0,running
12.1060416,11.6942388,-1.8004396,14.29830127583946,18.11567509121881,5.918159550060459,26.791117,30.775068,7.426814,-2.973598,-7.072471000000001,-7.781155,0,running
7.9611998,3.185246200000001,-2.3405714,12.107914136224938,10.754679517586691,3.595276662525959,25.718515,16.247053,3.409343,-3.600879,-12.382812,-6.488286,0,running
6.0525418,7.9276808,2.3884556000000003,8.237557038355193,10.711368060169193,5.782477042440489,18.650831,23.065739,12.3876,-3.203442,-2.30801,-2.504335,0,running
7.716033400000001,7.683472399999999,0.8801086,8.579426606947449,17.616211877754786,2.9316518374463056,22.582111,25.321077,4.563349,0.3830719999999999,-12.832921,-2.442086,0,running
8.1000632,9.0558282,-2.041775,9.694708333555228,16.509459597955477,4.529602419664446,25.244461,29.11828,5.7700260000000005,2.164359,-11.525687,-5.324704,0,running
8.4046058,12.1635026,-1.913446,13.367933429998788,17.74147432494282,8.500134968092272,29.850906,35.199554,7.900866000000001,-7.105989999999999,-13.306973,-15.318103,0,running
8.7733128,8.064629,-0.0411801999999999,11.80054702540525,13.56872433273915,5.817585478283384,26.503813,30.775068,7.426814,-3.217807,-3.131616,-7.781155,0,running
7.2371932,3.1134200000000005,-2.8155810000000003,12.032788434870351,10.690766842284818,2.5885802143460808,25.718515,16.247053,0.737414,-3.600879,-12.382812,-6.488286,0,running
7.5675926,7.36648,3.1660924,6.601343852314905,12.513635426999922,5.747249847800016,18.650831,23.065739,12.3876,1.000776,-7.996633,-2.442086,0,running
6.745903,8.458236000000001,-1.5993266,9.004324703761938,19.063325280853626,3.5896052351805063,22.582111,25.321077,3.241749,0.3830719999999999,-12.832921,-5.324704,0,running
6.46626,12.3741918,1.9144038,11.73651871488635,12.353275515397373,4.91728161082566,25.244461,29.11828,7.900866000000001,-7.105989999999999,-3.86903,-3.347094,0,running
7.772536399999998,8.3902406,-5.3256622,13.398310565145303,18.371696451124848,5.755332855577573,29.850906,35.199554,-1.316811,-5.430049,-13.306973,-15.318103,0,running
8.053137,5.035485400000001,-1.7429788000000002,12.134055350692426,7.795413917059075,3.6135362057867497,25.718515,16.247053,3.409343,-3.600879,-3.131616,-6.488286,0,running
7.959284199999999,2.6786328000000004,1.4164098,7.871126904428564,13.21425359035722,6.366545201968663,18.650831,23.065739,12.3876,-3.203442,-12.382812,-3.44765,0,running
7.015010999999999,5.7125654,0.5142745999999999,9.038234479816786,15.835150639961034,2.665301894448038,22.582111,25.321077,4.563349,0.3830719999999999,-12.832921,-2.442086,0,running
7.79169,14.5730268,-0.9222464,9.800256767737263,15.69990873413402,5.089681375151228,25.244461,29.11828,5.7700260000000005,2.164359,-11.525687,-5.324704,0,running
3.643975400000001,4.3497858,0.6789958,6.06422966804398,13.039854592786211,4.356499065082501,7.407660000000001,16.888699,7.900866000000001,-7.105989999999999,-13.306973,-2.437297,0,running
7.365521999999999,13.5779972,-4.490564600000001,15.53576784333869,21.23789120403676,7.490876551588325,29.850906,37.330395,5.621586,-5.430049,-8.451532,-15.318103,0,running
9.952218000000002,1.5016434000000003,-2.8749572,10.52512884016355,10.669448972950493,2.58305510585299,25.718515,16.247053,0.737414,-3.600879,-12.382812,-6.488286,0,running
5.8064178,6.6147008,1.7525556000000002,8.230364654980555,12.412686894875852,6.171193416183883,18.650831,23.065739,12.3876,-3.203442,-7.996633,-2.504335,0,running
7.0475724,12.8051486,0.3035849999999998,8.918125063197774,15.515079755144743,3.87876124291229,22.582111,25.321077,4.563349,0.3830719999999999,-12.832921,-5.324704,0,running
6.245993400000001,6.6913146,-0.6560112,11.776598343173989,15.809503699371016,4.329618252427887,25.244461,29.11828,5.7700260000000005,-7.105989999999999,-11.525687,-4.951209,0,running
9.8976298,10.8438186,-3.2522834,11.48708048428804,18.560656491272912,8.333133674376363,29.850906,35.199554,7.900866000000001,0.35913,-13.306973,-15.318103,0,running
3.5989642,11.450030600000002,-1.6146493999999998,9.531010326176848,16.680747349058983,4.396827960997997,17.056293,37.330395,5.621586,-5.430049,-8.451532,-5.200206,0,running
3.5089422,-0.5975925999999998,-1.5361198,6.483036241447767,7.829615213786102,1.7714805873241175,10.534488,6.684612,0.737414,-3.600879,-12.382812,-3.44765,0,running
10.6685628,12.8922974,3.1871614,9.373182736467625,13.252007332674786,5.732498772861038,22.582111,25.321077,12.3876,1.000776,-7.996633,-2.442086,0,running
2.8194122,6.1827866,-0.4481944,1.6470278795408109,17.12811627220201,4.91474550286109,4.505888,23.716963,5.7700260000000005,0.3830719999999999,-12.832921,-5.324704,0,running
7.3578606,6.924031199999999,0.4970364000000002,11.57074398353774,16.725361523851753,4.534559200251696,25.244461,29.11828,7.900866000000001,-7.105989999999999,-13.306973,-3.347094,0,running
5.2892704,9.3613288,-6.102341200000001,14.581254713832768,17.016448563186465,5.325038147354786,29.850906,35.199554,-2.437297,-5.430049,-8.451532,-15.318103,0,running
8.3806636,17.2267604,-2.2582108,10.957078154661271,11.606844491740157,5.625995636985217,20.283676,37.330395,5.621586,-6.813898,8.456321,-9.662998,0,running
6.0525418,7.9276808,2.3884556000000003,8.237557038355193,10.711368060169193,5.782477042440489,18.650831,23.065739,12.3876,-3.203442,-2.30801,-2.504335,0,running
7.716033400000001,7.683472399999999,0.8801086,8.579426606947449,17.616211877754786,2.9316518374463056,22.582111,25.321077,4.563349,0.3830719999999999,-12.832921,-2.442086,0,running
8.1000632,9.0558282,-2.041775,9.694708333555228,16.509459597955477,4.529602419664446,25.244461,29.11828,5.7700260000000005,2.164359,-11.525687,-5.324704,0,running
8.4046058,12.1635026,-1.913446,13.367933429998788,17.74147432494282,8.500134968092272,29.850906,35.199554,7.900866000000001,-7.105989999999999,-13.306973,-15.318103,0,running
1.934515,8.8633352,-1.6433798000000004,9.140217333200646,17.531183106145967,4.424424375345362,17.056293,37.330395,5.621586,-5.430049,-8.451532,-5.200206,0,running
8.7436246,8.3892826,-3.1172506,10.038542323279849,11.1237159719312,5.894354266953489,20.283676,16.596605,5.961562000000001,-6.813898,-10.682928,-9.662998,0,running
7.5675926,7.36648,3.1660924,6.601343852314905,12.513635426999922,5.747249847800016,18.650831,23.065739,12.3876,1.000776,-7.996633,-2.442086,0,running
6.745903,8.458236000000001,-1.5993266,9.004324703761938,19.063325280853626,3.5896052351805063,22.582111,25.321077,3.241749,0.3830719999999999,-12.832921,-5.324704,0,running
6.46626,12.3741918,1.9144038,11.73651871488635,12.353275515397373,4.91728161082566,25.244461,29.11828,7.900866000000001,-7.105989999999999,-3.86903,-3.347094,0,running
7.772536399999998,8.3902406,-5.3256622,13.398310565145303,18.371696451124848,5.755332855577573,29.850906,35.199554,-1.316811,-5.430049,-13.306973,-15.318103,0,running
8.741709199999999,13.8451898,-3.0540434,10.343814929209133,16.310689370154307,5.723202309565407,20.283676,37.330395,5.621586,-5.00867,-8.451532,-9.662998,0,running
6.3906030000000005,7.398083400000002,-0.2662351999999998,8.658766356573551,16.318467854463293,6.485598373898488,13.967772,29.659370000000003,6.852206,-6.813898,-10.682928,-7.206547,0,running
7.015010999999999,5.7125654,0.5142745999999999,9.038234479816786,15.835150639961034,2.665301894448038,22.582111,25.321077,4.563349,0.3830719999999999,-12.832921,-2.442086,0,running
7.79169,14.5730268,-0.9222464,9.800256767737263,15.69990873413402,5.089681375151228,25.244461,29.11828,5.7700260000000005,2.164359,-11.525687,-5.324704,0,running
3.643975400000001,4.3497858,0.6789958,6.06422966804398,13.039854592786211,4.356499065082501,7.407660000000001,16.888699,7.900866000000001,-7.105989999999999,-13.306973,-2.437297,0,running
7.365521999999999,13.5779972,-4.490564600000001,15.53576784333869,21.23789120403676,7.490876551588325,29.850906,37.330395,5.621586,-5.430049,-8.451532,-15.318103,0,running
7.7514674,7.624095800000001,-4.5259988,10.4110671090963,10.63736458875114,3.5625647233981166,20.283676,16.596605,-1.082179,-6.813898,-10.682928,-9.662998,0,running
9.191818799999998,16.3907048,1.7918208000000004,8.90048879540948,14.292416684644753,7.538384604533236,21.787235,29.659370000000003,8.863335000000001,-0.684742,-5.894524,-7.206547,0,running
7.0475724,12.8051486,0.3035849999999998,8.918125063197774,15.515079755144743,3.87876124291229,22.582111,25.321077,4.563349,0.3830719999999999,-12.832921,-5.324704,0,running
6.245993400000001,6.6913146,-0.6560112,11.776598343173989,15.809503699371016,4.329618252427887,25.244461,29.11828,5.7700260000000005,-7.105989999999999,-11.525687,-4.951209,0,running
9.8976298,10.8438186,-3.2522834,11.48708048428804,18.560656491272912,8.333133674376363,29.850906,35.199554,7.900866000000001,0.35913,-13.306973,-15.318103,0,running
3.5989642,11.450030600000002,-1.6146493999999998,9.531010326176848,16.680747349058983,4.396827960997997,17.056293,37.330395,5.621586,-5.430049,-8.451532,-5.200206,0,running
9.8009038,11.8963092,-0.7575253999999999,10.30519253265174,14.764135462877691,7.1968107173459686,20.283676,29.659370000000003,6.852206,-6.813898,-10.682928,-9.662998,0,running
6.640557600000001,7.681556800000001,-0.8044515999999996,8.908072143721798,16.08802783617651,7.453271191185204,21.787235,28.222849,8.863335000000001,-0.684742,-11.200075,-7.206547,0,running
2.8194122,6.1827866,-0.4481944,1.6470278795408109,17.12811627220201,4.91474550286109,4.505888,23.716963,5.7700260000000005,0.3830719999999999,-12.832921,-5.324704,0,running
7.3578606,6.924031199999999,0.4970364000000002,11.57074398353774,16.725361523851753,4.534559200251696,25.244461,29.11828,7.900866000000001,-7.105989999999999,-13.306973,-3.347094,0,running
5.2892704,9.3613288,-6.102341200000001,14.581254713832768,17.016448563186465,5.325038147354786,29.850906,35.199554,-2.437297,-5.430049,-8.451532,-15.318103,0,running
8.3806636,17.2267604,-2.2582108,10.957078154661271,11.606844491740157,5.625995636985217,20.283676,37.330395,5.621586,-6.813898,8.456321,-9.662998,0,running
12.1108296,11.351389,-1.1243169999999998,7.053180271668327,18.8386400923112,6.913231236850537,21.787235,29.659370000000003,6.852206,3.2321720000000003,-10.682928,-7.206547,0,running
9.9541332,9.4887006,0.327527,14.193018729469632,18.29293543187781,6.471223630417396,34.6441,35.654453000000004,8.863335000000001,-0.684742,-11.200075,-5.765238,0,running
3.697605,4.4350196,-1.5313312,14.78952633820497,15.491762435588624,9.152256722220027,30.119057,23.142353,8.255207,-4.165911,-19.938911,-16.376339,0,running
4.3296744,5.335239199999999,1.3685258,5.6951714212843765,20.27298251343289,3.7390034820183295,12.909535,28.543673,7.354988,-1.522712,-16.098612,-2.715025,0,running
6.636727599999999,3.2589872000000013,0.1963244,14.581485400653952,16.822425191610638,3.1534132841692823,30.674513,24.890121,3.610456,-8.006210000000001,-14.585477,-4.079719,0,running
3.4687196,10.7557116,-1.460463,7.494280883606932,11.41854526023851,1.7154950394104904,15.35641,25.665842,0.895431,-3.246537,-3.926491,-3.605668,0,running
10.5689638,7.1864356,-0.923204,9.417100559972438,20.205797125781768,2.066955576692082,18.689138,29.8126,2.30801,-0.143652,-20.618866,-3.394978,0,running
8.0847404,2.5828648000000007,3.4715926,11.689923133430616,17.66864045893753,4.498327390647695,18.784906,30.004135,10.548853,-8.231264999999999,-14.528016,-1.479617,0,running
8.1000632,9.0558282,-2.041775,9.694708333555228,16.509459597955477,4.529602419664446,25.244461,29.11828,5.7700260000000005,2.164359,-11.525687,-5.324704,0,running
8.4046058,12.1635026,-1.913446,13.367933429998788,17.74147432494282,8.500134968092272,29.850906,35.199554,7.900866000000001,-7.105989999999999,-13.306973,-15.318103,0,running
1.934515,8.8633352,-1.6433798000000004,9.140217333200646,17.531183106145967,4.424424375345362,17.056293,37.330395,5.621586,-5.430049,-8.451532,-5.200206,0,running
8.7436246,8.3892826,-3.1172506,10.038542323279849,11.1237159719312,5.894354266953489,20.283676,16.596605,5.961562000000001,-6.813898,-10.682928,-9.662998,0,running
8.0378136,11.0602542,-0.5535391999999997,9.502962830372867,18.943300122817927,7.738342816248432,21.787235,29.659370000000003,8.863335000000001,-0.684742,-11.200075,-7.206547,0,running
12.7304496,11.801499400000004,-1.2430692,14.354132627852938,14.73024749318384,3.908205013902572,34.6441,35.654453000000004,5.597644,-3.031059,-4.290409,-3.5769370000000005,0,running
6.46626,12.3741918,1.9144038,11.73651871488635,12.353275515397373,4.91728161082566,25.244461,29.11828,7.900866000000001,-7.105989999999999,-3.86903,-3.347094,0,running
7.772536399999998,8.3902406,-5.3256622,13.398310565145303,18.371696451124848,5.755332855577573,29.850906,35.199554,-1.316811,-5.430049,-13.306973,-15.318103,0,running
8.741709199999999,13.8451898,-3.0540434,10.343814929209133,16.310689370154307,5.723202309565407,20.283676,37.330395,5.621586,-5.00867,-8.451532,-9.662998,0,running
6.3906030000000005,7.398083400000002,-0.2662351999999998,8.658766356573551,16.318467854463293,6.485598373898488,13.967772,29.659370000000003,6.852206,-6.813898,-10.682928,-7.206547,0,running
12.9229432,15.9913522,-0.0785295999999998,14.938661650946871,17.945807397613105,6.824039160011782,34.6441,35.654453000000004,8.863335000000001,-0.684742,-11.200075,-5.765238,0,running
7.240066199999999,2.9075188,-2.3338676000000005,7.485476732083114,11.280860407497302,2.681943307390147,18.11453,16.352398,1.848324,-3.031059,-12.401965,-5.281609,0,running
3.643975400000001,4.3497858,0.6789958,6.06422966804398,13.039854592786211,4.356499065082501,7.407660000000001,16.888699,7.900866000000001,-7.105989999999999,-13.306973,-2.437297,0,running
7.365521999999999,13.5779972,-4.490564600000001,15.53576784333869,21.23789120403676,7.490876551588325,29.850906,37.330395,5.621586,-5.430049,-8.451532,-15.318103,0,running
7.7514674,7.624095800000001,-4.5259988,10.4110671090963,10.63736458875114,3.5625647233981166,20.283676,16.596605,-1.082179,-6.813898,-10.682928,-9.662998,0,running
9.191818799999998,16.3907048,1.7918208000000004,8.90048879540948,14.292416684644753,7.538384604533236,21.787235,29.659370000000003,8.863335000000001,-0.684742,-5.894524,-7.206547,0,running
9.484869800000002,7.931511800000003,-1.7611746000000004,14.663693539463129,18.0884957998306,4.372438401722008,34.6441,35.654453000000004,5.597644,-3.031059,-11.200075,-5.765238,0,running
15.2347852,9.2531112,-2.5100808,12.247551070136664,16.886282705670222,2.629045909316192,35.52038,32.853237,1.848324,6.737284,-12.401965,-5.281609,0,running
9.8976298,10.8438186,-3.2522834,11.48708048428804,18.560656491272912,8.333133674376363,29.850906,35.199554,7.900866000000001,0.35913,-13.306973,-15.318103,0,running
3.5989642,11.450030600000002,-1.6146493999999998,9.531010326176848,16.680747349058983,4.396827960997997,17.056293,37.330395,5.621586,-5.430049,-8.451532,-5.200206,0,running
9.8009038,11.8963092,-0.7575253999999999,10.30519253265174,14.764135462877691,7.1968107173459686,20.283676,29.659370000000003,6.852206,-6.813898,-10.682928,-9.662998,0,running
6.640557600000001,7.681556800000001,-0.8044515999999996,8.908072143721798,16.08802783617651,7.453271191185204,21.787235,28.222849,8.863335000000001,-0.684742,-11.200075,-7.206547,0,running
12.8214294,6.767929799999999,-3.4189198000000003,14.309958510994758,18.20792618261133,1.3171069799660164,34.6441,35.654453000000004,-1.580173,-3.031059,-12.401965,-5.281609,0,running
9.0768984,8.7790594,-2.8280308,15.661732407944925,16.617452066913213,3.613665859723225,35.52038,32.853237,1.848324,-3.696647,-11.042058,-8.231264999999999,0,running
5.2892704,9.3613288,-6.102341200000001,14.581254713832768,17.016448563186465,5.325038147354786,29.850906,35.199554,-2.437297,-5.430049,-8.451532,-15.318103,0,running
8.3806636,17.2267604,-2.2582108,10.957078154661271,11.606844491740157,5.625995636985217,20.283676,37.330395,5.621586,-6.813898,8.456321,-9.662998,0,running
12.1108296,11.351389,-1.1243169999999998,7.053180271668327,18.8386400923112,6.913231236850537,21.787235,29.659370000000003,6.852206,3.2321720000000003,-10.682928,-7.206547,0,running
9.9541332,9.4887006,0.327527,14.193018729469632,18.29293543187781,6.471223630417396,34.6441,35.654453000000004,8.863335000000001,-0.684742,-11.200075,-5.765238,0,running
12.9555052,10.336248,-2.1863848,14.667022899963229,16.416737133173694,2.6227004648347094,35.52038,32.853237,1.848324,-3.031059,-12.401965,-5.281609,0,running
2.6441564,8.4295052,-1.6165647999999997,8.564612802341493,16.520605826682758,4.621818245180375,14.829685,33.154903000000004,3.979163,-4.735731,-11.042058,-8.231264999999999,0,running
1.934515,8.8633352,-1.6433798000000004,9.140217333200646,17.531183106145967,4.424424375345362,17.056293,37.330395,5.621586,-5.430049,-8.451532,-5.200206,0,running
8.7436246,8.3892826,-3.1172506,10.038542323279849,11.1237159719312,5.894354266953489,20.283676,16.596605,5.961562000000001,-6.813898,-10.682928,-9.662998,0,running
8.0378136,11.0602542,-0.5535391999999997,9.502962830372867,18.943300122817927,7.738342816248432,21.787235,29.659370000000003,8.863335000000001,-0.684742,-11.200075,-7.206547,0,running
12.7304496,11.801499400000004,-1.2430692,14.354132627852938,14.73024749318384,3.908205013902572,34.6441,35.654453000000004,5.597644,-3.031059,-4.290409,-3.5769370000000005,0,running
10.872549800000002,8.507077999999998,-2.2380996000000004,14.619941308598223,17.029005277934733,2.613395102291041,35.52038,32.853237,1.848324,-3.696647,-12.401965,-5.281609,0,running
5.294058799999999,5.4922982000000005,-1.7697936,8.35760470271768,19.17754536884303,4.720680236257514,14.829685,33.154903000000004,3.979163,-4.735731,-13.311762,-8.231264999999999,0,running
8.741709199999999,13.8451898,-3.0540434,10.343814929209133,16.310689370154307,5.723202309565407,20.283676,37.330395,5.621586,-5.00867,-8.451532,-9.662998,0,running
6.3906030000000005,7.398083400000002,-0.2662351999999998,8.658766356573551,16.318467854463293,6.485598373898488,13.967772,29.659370000000003,6.852206,-6.813898,-10.682928,-7.206547,0,running
12.9229432,15.9913522,-0.0785295999999998,14.938661650946871,17.945807397613105,6.824039160011782,34.6441,35.654453000000004,8.863335000000001,-0.684742,-11.200075,-5.765238,0,running
7.240066199999999,2.9075188,-2.3338676000000005,7.485476732083114,11.280860407497302,2.681943307390147,18.11453,16.352398,1.848324,-3.031059,-12.401965,-5.281609,0,running
10.695378600000002,12.139560400000002,-2.401863,15.77722104338864,19.905528827382604,4.353039800800356,35.52038,33.154903000000004,3.979163,-3.696647,-11.042058,-8.231264999999999,0,running
1.9852722,0.2806003999999994,-1.3283028,6.915036184774175,11.581317127068742,2.27902977234342,11.631032,14.302960999999998,1.182736,-4.735731,-13.311762,-4.13718,0,running
7.7514674,7.624095800000001,-4.5259988,10.4110671090963,10.63736458875114,3.5625647233981166,20.283676,16.596605,-1.082179,-6.813898,-10.682928,-9.662998,0,running
9.191818799999998,16.3907048,1.7918208000000004,8.90048879540948,14.292416684644753,7.538384604533236,21.787235,29.659370000000003,8.863335000000001,-0.684742,-5.894524,-7.206547,0,running
9.484869800000002,7.931511800000003,-1.7611746000000004,14.663693539463129,18.0884957998306,4.372438401722008,34.6441,35.654453000000004,5.597644,-3.031059,-11.200075,-5.765238,0,running
15.2347852,9.2531112,-2.5100808,12.247551070136664,16.886282705670222,2.629045909316192,35.52038,32.853237,1.848324,6.737284,-12.401965,-5.281609,0,running
2.228523,5.5047482,-1.8042702,8.262660561326205,19.176644626809267,4.720146896386668,14.829685,33.154903000000004,3.979163,-4.735731,-13.311762,-8.231264999999999,0,running
2.2170308,9.2186342,-1.0936712,6.69432154392267,14.359132050020248,2.019152719548895,11.631032,27.897238,1.302446,-3.701436,-9.983821,-3.083732,0,running
9.8009038,11.8963092,-0.7575253999999999,10.30519253265174,14.764135462877691,7.1968107173459686,20.283676,29.659370000000003,6.852206,-6.813898,-10.682928,-9.662998,0,running
6.640557600000001,7.681556800000001,-0.8044515999999996,8.908072143721798,16.08802783617651,7.453271191185204,21.787235,28.222849,8.863335000000001,-0.684742,-11.200075,-7.206547,0,running
12.8214294,6.767929799999999,-3.4189198000000003,14.309958510994758,18.20792618261133,1.3171069799660164,34.6441,35.654453000000004,-1.580173,-3.031059,-12.401965,-5.281609,0,running
9.0768984,8.7790594,-2.8280308,15.661732407944925,16.617452066913213,3.613665859723225,35.52038,32.853237,1.848324,-3.696647,-11.042058,-8.231264999999999,0,running
4.8659756000000005,8.9083452,0.0268152,8.836384662624091,16.879567149966384,3.0662675761760743,14.829685,33.154903000000004,3.979163,-4.735731,-13.311762,-4.13718,0,running
0.6397305999999998,7.1280172,0.1848326,3.68645736831932,16.485590302586825,4.58834942356277,6.411672,27.897238,7.762002000000001,-3.701436,-9.983821,-3.083732,0,running
12.1108296,11.351389,-1.1243169999999998,7.053180271668327,18.8386400923112,6.913231236850537,21.787235,29.659370000000003,6.852206,3.2321720000000003,-10.682928,-7.206547,0,running
9.9541332,9.4887006,0.327527,14.193018729469632,18.29293543187781,6.471223630417396,34.6441,35.654453000000004,8.863335000000001,-0.684742,-11.200075,-5.765238,0,running
12.9555052,10.336248,-2.1863848,14.667022899963229,16.416737133173694,2.6227004648347094,35.52038,32.853237,1.848324,-3.031059,-12.401965,-5.281609,0,running
2.6441564,8.4295052,-1.6165647999999997,8.564612802341493,16.520605826682758,4.621818245180375,14.829685,33.154903000000004,3.979163,-4.735731,-11.042058,-8.231264999999999,0,running
4.214752799999999,2.9994558,-1.3043608,5.933782819439315,16.32175563238908,2.3123885978402723,11.631032,27.897238,1.302446,-3.682282,-13.311762,-4.13718,0,running
2.6728868,5.314169999999999,-0.4903323999999998,5.567228503830852,17.56026643036556,6.420281906196238,8.604761,25.306711,7.762002000000001,-3.701436,-16.462529999999997,-8.734048,0,running
7.039910600000001,4.619851799999999,-2.8318614000000006,14.579667598692309,22.06428132668987,7.779372856931066,30.119057,28.543673,2.226608,-4.165911,-19.938911,-16.376339,0,running
2.0283679999999995,1.3934254000000004,1.5945382,6.328911423778697,14.92020833476744,3.71591386315563,7.886500999999999,16.591818,7.354988,-8.006210000000001,-16.098612,-2.715025,0,running
10.9376714,13.3864604,-1.1310208,12.433959579816634,16.47666921038047,2.9105305796489582,30.674513,25.665842,3.610456,1.187524,-14.585477,-4.079719,0,running
6.5016940000000005,5.7441686,-1.760217,10.834939399772916,10.789974977316156,1.835132060994249,18.689138,22.256498,0.895431,-3.246537,-3.926491,-3.605668,0,running
6.3235656,6.582139,1.8368316,8.45872954633338,23.85649192396483,5.114633138624881,15.629349,30.004135,10.548853,-0.205901,-20.618866,-1.489193,0,running
7.737102399999999,4.5499412,0.9279928000000002,12.114304174381138,10.10477900402934,2.7459049611561035,18.784906,15.883134,4.553772,-8.231264999999999,-11.453861,-2.020706,0,running
8.0378136,11.0602542,-0.5535391999999997,9.502962830372867,18.943300122817927,7.738342816248432,21.787235,29.659370000000003,8.863335000000001,-0.684742,-11.200075,-7.206547,0,running
12.7304496,11.801499400000004,-1.2430692,14.354132627852938,14.73024749318384,3.908205013902572,34.6441,35.654453000000004,5.597644,-3.031059,-4.290409,-3.5769370000000005,0,running
10.872549800000002,8.507077999999998,-2.2380996000000004,14.619941308598223,17.029005277934733,2.613395102291041,35.52038,32.853237,1.848324,-3.696647,-12.401965,-5.281609,0,running
5.294058799999999,5.4922982000000005,-1.7697936,8.35760470271768,19.17754536884303,4.720680236257514,14.829685,33.154903000000004,3.979163,-4.735731,-13.311762,-8.231264999999999,0,running
0.0651222,6.6271502,-1.217212,4.162008972896527,16.469907163238982,2.07912773375435,6.411672,27.897238,1.302446,-3.701436,-9.983821,-3.083732,0,running
5.4836796,11.7133924,6.928819999999999,6.0302934760878175,17.090432869683095,11.040470470623886,12.229582,25.306711,21.878216,-1.005565,-16.462529999999997,-8.734048,0,running
12.9229432,15.9913522,-0.0785295999999998,14.938661650946871,17.945807397613105,6.824039160011782,34.6441,35.654453000000004,8.863335000000001,-0.684742,-11.200075,-5.765238,0,running
7.240066199999999,2.9075188,-2.3338676000000005,7.485476732083114,11.280860407497302,2.681943307390147,18.11453,16.352398,1.848324,-3.031059,-12.401965,-5.281609,0,running
10.695378600000002,12.139560400000002,-2.401863,15.77722104338864,19.905528827382604,4.353039800800356,35.52038,33.154903000000004,3.979163,-3.696647,-11.042058,-8.231264999999999,0,running
1.9852722,0.2806003999999994,-1.3283028,6.915036184774175,11.581317127068742,2.27902977234342,11.631032,14.302960999999998,1.182736,-4.735731,-13.311762,-4.13718,0,running
2.2754492,14.186123600000002,-1.0026916,5.108279928474428,14.795812941686856,6.079047118121623,8.604761,27.897238,7.762002000000001,-3.701436,-8.599973,-8.734048,0,running
2.3348254,4.5576024,7.0868374,9.380384915306797,16.18123333004355,9.469731684897823,12.229582,23.908499,21.878216,-11.927913,-16.462529999999997,-3.150769,0,running
9.484869800000002,7.931511800000003,-1.7611746000000004,14.663693539463129,18.0884957998306,4.372438401722008,34.6441,35.654453000000004,5.597644,-3.031059,-11.200075,-5.765238,0,running
15.2347852,9.2531112,-2.5100808,12.247551070136664,16.886282705670222,2.629045909316192,35.52038,32.853237,1.848324,6.737284,-12.401965,-5.281609,0,running
2.228523,5.5047482,-1.8042702,8.262660561326205,19.176644626809267,4.720146896386668,14.829685,33.154903000000004,3.979163,-4.735731,-13.311762,-8.231264999999999,0,running
2.2170308,9.2186342,-1.0936712,6.69432154392267,14.359132050020248,2.019152719548895,11.631032,27.897238,1.302446,-3.701436,-9.983821,-3.083732,0,running
5.8590904,6.5390438,2.1011516,5.565857928911437,18.816212542982065,7.615581556506029,12.229582,25.306711,9.873688,-0.80924,-16.462529999999997,-8.734048,0,running
3.2733523999999994,7.4928934,0.8810665999999998,11.206222327248634,8.967498602242088,12.789283815721063,18.83279,17.27177,21.878216,-11.927913,-3.011906,-11.018116,0,running
12.8214294,6.767929799999999,-3.4189198000000003,14.309958510994758,18.20792618261133,1.3171069799660164,34.6441,35.654453000000004,-1.580173,-3.031059,-12.401965,-5.281609,0,running
9.0768984,8.7790594,-2.8280308,15.661732407944925,16.617452066913213,3.613665859723225,35.52038,32.853237,1.848324,-3.696647,-11.042058,-8.231264999999999,0,running
4.8659756000000005,8.9083452,0.0268152,8.836384662624091,16.879567149966384,3.0662675761760743,14.829685,33.154903000000004,3.979163,-4.735731,-13.311762,-4.13718,0,running
0.6397305999999998,7.1280172,0.1848326,3.68645736831932,16.485590302586825,4.58834942356277,6.411672,27.897238,7.762002000000001,-3.701436,-9.983821,-3.083732,0,running
6.4413602,9.4025088,4.7462658,5.087600860929412,18.360355375691743,11.881226376462372,12.229582,25.306711,21.878216,-1.005565,-16.462529999999997,-8.734048,0,running
6.3599576,10.848606800000002,-1.3541603999999996,16.656823799594157,13.872041386822154,6.920981737967873,26.575640000000003,32.57072,4.936844000000001,-11.927913,-1.532289,-11.018116,0,running
12.9555052,10.336248,-2.1863848,14.667022899963229,16.416737133173694,2.6227004648347094,35.52038,32.853237,1.848324,-3.031059,-12.401965,-5.281609,0,running
2.6441564,8.4295052,-1.6165647999999997,8.564612802341493,16.520605826682758,4.621818245180375,14.829685,33.154903000000004,3.979163,-4.735731,-11.042058,-8.231264999999999,0,running
4.214752799999999,2.9994558,-1.3043608,5.933782819439315,16.32175563238908,2.3123885978402723,11.631032,27.897238,1.302446,-3.682282,-13.311762,-4.13718,0,running
2.6728868,5.314169999999999,-0.4903323999999998,5.567228503830852,17.56026643036556,6.420281906196238,8.604761,25.306711,7.762002000000001,-3.701436,-16.462529999999997,-8.734048,0,running
1.9527108,9.0711512,5.059427399999999,9.106524507630132,11.247419370974246,11.249959114336496,12.229582,23.908499,21.878216,-11.927913,-3.011906,-6.272808,0,running
7.409575600000001,10.1178966,-2.4487894,14.8243420943527,14.595463999104853,6.360206120014728,26.575640000000003,32.57072,4.936844000000001,-8.169016000000001,-2.590526,-11.018116,0,running
10.872549800000002,8.507077999999998,-2.2380996000000004,14.619941308598223,17.029005277934733,2.613395102291041,35.52038,32.853237,1.848324,-3.696647,-12.401965,-5.281609,0,running
5.294058799999999,5.4922982000000005,-1.7697936,8.35760470271768,19.17754536884303,4.720680236257514,14.829685,33.154903000000004,3.979163,-4.735731,-13.311762,-8.231264999999999,0,running
0.0651222,6.6271502,-1.217212,4.162008972896527,16.469907163238982,2.07912773375435,6.411672,27.897238,1.302446,-3.701436,-9.983821,-3.083732,0,running
5.4836796,11.7133924,6.928819999999999,6.0302934760878175,17.090432869683095,11.040470470623886,12.229582,25.306711,21.878216,-1.005565,-16.462529999999997,-8.734048,0,running
1.8406622,3.7320816000000008,-2.971683,12.295053170181074,7.693716389772261,5.9617346922343,18.83279,16.017210000000002,2.96881,-11.927913,-3.011906,-11.018116,0,running
7.925765600000001,11.0918576,1.4786591999999998,11.65291795298016,18.3777151399028,7.77713192413866,26.575640000000003,32.57072,13.560759,-3.691859,-8.676587,-4.965574,0,running
10.695378600000002,12.139560400000002,-2.401863,15.77722104338864,19.905528827382604,4.353039800800356,35.52038,33.154903000000004,3.979163,-3.696647,-11.042058,-8.231264999999999,0,running
1.9852722,0.2806003999999994,-1.3283028,6.915036184774175,11.581317127068742,2.27902977234342,11.631032,14.302960999999998,1.182736,-4.735731,-13.311762,-4.13718,0,running
2.2754492,14.186123600000002,-1.0026916,5.108279928474428,14.795812941686856,6.079047118121623,8.604761,27.897238,7.762002000000001,-3.701436,-8.599973,-8.734048,0,running
2.3348254,4.5576024,7.0868374,9.380384915306797,16.18123333004355,9.469731684897823,12.229582,23.908499,21.878216,-11.927913,-16.462529999999997,-3.150769,0,running
9.4456048,10.114065800000002,-2.9410372,13.563962567330195,14.596776656087853,6.583374858084507,26.575640000000003,32.57072,4.936844000000001,-8.169016000000001,-2.590526,-11.018116,0,running
2.6182989999999995,5.7728992,-0.4568132000000006,5.8829968785537785,16.66023247599379,11.420235461816745,10.94629,28.031313,13.560759,-3.691859,-11.956643,-16.510414,0,running
2.228523,5.5047482,-1.8042702,8.262660561326205,19.176644626809267,4.720146896386668,14.829685,33.154903000000004,3.979163,-4.735731,-13.311762,-8.231264999999999,0,running
2.2170308,9.2186342,-1.0936712,6.69432154392267,14.359132050020248,2.019152719548895,11.631032,27.897238,1.302446,-3.701436,-9.983821,-3.083732,0,running
5.8590904,6.5390438,2.1011516,5.565857928911437,18.816212542982065,7.615581556506029,12.229582,25.306711,9.873688,-0.80924,-16.462529999999997,-8.734048,0,running
3.2733523999999994,7.4928934,0.8810665999999998,11.206222327248634,8.967498602242088,12.789283815721063,18.83279,17.27177,21.878216,-11.927913,-3.011906,-11.018116,0,running
4.1027044,5.179137200000001,-0.7105989999999998,13.41642118526328,16.1909254718536,4.280297670241172,26.575640000000003,32.57072,4.936844000000001,-8.169016000000001,-8.676587,-4.965574,0,running
1.7257407999999992,8.868123200000001,1.0017345999999998,7.322233101643324,14.617839775700416,11.250711792734394,10.94629,28.031313,13.560759,-8.331821000000001,-11.956643,-16.510414,0,running
4.8659756000000005,8.9083452,0.0268152,8.836384662624091,16.879567149966384,3.0662675761760743,14.829685,33.154903000000004,3.979163,-4.735731,-13.311762,-4.13718,0,running
0.6397305999999998,7.1280172,0.1848326,3.68645736831932,16.485590302586825,4.58834942356277,6.411672,27.897238,7.762002000000001,-3.701436,-9.983821,-3.083732,0,running
6.4413602,9.4025088,4.7462658,5.087600860929412,18.360355375691743,11.881226376462372,12.229582,25.306711,21.878216,-1.005565,-16.462529999999997,-8.734048,0,running
6.3599576,10.848606800000002,-1.3541603999999996,16.656823799594157,13.872041386822154,6.920981737967873,26.575640000000003,32.57072,4.936844000000001,-11.927913,-1.532289,-11.018116,0,running
2.2199038,7.6461226,1.8521548,5.704452334623255,14.562956169160069,8.02560388995873,10.94629,28.031313,13.560759,-3.691859,-8.676587,-4.965574,0,running
1.0199301999999997,2.001553,-1.5227119999999998,6.0745787686124135,16.848203430268715,9.36747084161304,6.742072,25.589228,8.944737,-8.331821000000001,-16.548721,-16.510414,0,running
4.214752799999999,2.9994558,-1.3043608,5.933782819439315,16.32175563238908,2.3123885978402723,11.631032,27.897238,1.302446,-3.682282,-13.311762,-4.13718,0,running
2.6728868,5.314169999999999,-0.4903323999999998,5.567228503830852,17.56026643036556,6.420281906196238,8.604761,25.306711,7.762002000000001,-3.701436,-16.462529999999997,-8.734048,0,running
1.9527108,9.0711512,5.059427399999999,9.106524507630132,11.247419370974246,11.249959114336496,12.229582,23.908499,21.878216,-11.927913,-3.011906,-6.272808,0,running
7.409575600000001,10.1178966,-2.4487894,14.8243420943527,14.595463999104853,6.360206120014728,26.575640000000003,32.57072,4.936844000000001,-8.169016000000001,-2.590526,-11.018116,0,running
3.8517918,5.9222974,0.8178597999999999,4.770570045778251,16.66751982990165,11.307307048468624,10.94629,28.031313,13.560759,-1.953669,-11.956643,-16.510414,0,running
2.591484,7.522582,2.5263618,7.318053594547973,18.472272197265102,6.113576334372843,9.653421,25.905262,9.399636,-8.331821000000001,-16.548721,-3.102885,0,running
2.3491906,4.0778046,0.3428498000000001,6.714240838910033,19.82566393575073,1.9722517118276763,12.909535,28.543673,2.226608,-4.165911,-16.098612,-2.715025,0,running
7.4957672,8.8872766,0.9452307999999998,14.323120749996583,13.794842348292686,4.374983638230628,30.674513,24.890121,7.354988,-8.006210000000001,-12.397177,-4.079719,0,running
4.0260898,6.760267800000001,-0.4663906,7.142075341100176,16.241293955814562,2.851968663619536,15.35641,25.665842,3.610456,-3.246537,-14.585477,-3.605668,0,running
7.1739858,2.302264,-1.6567872,10.166681857678013,15.85164737908827,1.0183889962178991,18.689138,22.256498,-0.7038949999999999,-1.345541,-20.618866,-3.394978,0,running
7.453628999999999,10.836157,3.5798104000000004,11.034641798964138,19.056285510650063,4.453348767944107,15.629349,30.004135,10.548853,-8.231264999999999,-14.528016,-1.479617,0,running
10.198341599999996,4.0433282,0.3122039999999999,9.614029644034352,18.989800333049864,2.607647847789747,18.784906,25.890898,4.161122,-2.202665,-19.531897,-2.020706,0,running
0.0651222,6.6271502,-1.217212,4.162008972896527,16.469907163238982,2.07912773375435,6.411672,27.897238,1.302446,-3.701436,-9.983821,-3.083732,0,running
5.4836796,11.7133924,6.928819999999999,6.0302934760878175,17.090432869683095,11.040470470623886,12.229582,25.306711,21.878216,-1.005565,-16.462529999999997,-8.734048,0,running
1.8406622,3.7320816000000008,-2.971683,12.295053170181074,7.693716389772261,5.9617346922343,18.83279,16.017210000000002,2.96881,-11.927913,-3.011906,-11.018116,0,running
7.925765600000001,11.0918576,1.4786591999999998,11.65291795298016,18.3777151399028,7.77713192413866,26.575640000000003,32.57072,13.560759,-3.691859,-8.676587,-4.965574,0,running
0.8848971999999996,-0.0478836000000001,-1.950795,6.145533982888974,13.565002748988068,8.801331877463094,6.742072,15.342045,6.804322,-8.331821000000001,-16.548721,-16.510414,0,running
7.495766399999999,13.5234088,4.3258438,9.419062296816138,12.4266177677349,5.684712523304472,22.419304,25.905262,9.399636,-1.278504,-3.3854010000000003,-3.102885,0,running
2.2754492,14.186123600000002,-1.0026916,5.108279928474428,14.795812941686856,6.079047118121623,8.604761,27.897238,7.762002000000001,-3.701436,-8.599973,-8.734048,0,running
2.3348254,4.5576024,7.0868374,9.380384915306797,16.18123333004355,9.469731684897823,12.229582,23.908499,21.878216,-11.927913,-16.462529999999997,-3.150769,0,running
9.4456048,10.114065800000002,-2.9410372,13.563962567330195,14.596776656087853,6.583374858084507,26.575640000000003,32.57072,4.936844000000001,-8.169016000000001,-2.590526,-11.018116,0,running
2.6182989999999995,5.7728992,-0.4568132000000006,5.8829968785537785,16.66023247599379,11.420235461816745,10.94629,28.031313,13.560759,-3.691859,-11.956643,-16.510414,0,running
1.8521546,9.573934,3.659298,7.047590409405921,17.502136538486766,5.277271460368558,9.653421,25.905262,9.399636,-8.331821000000001,-16.548721,-1.40779,0,running
9.3335558,8.739794,0.6014238,8.75790147376132,8.670793892355734,4.109254547470344,22.419304,20.72421,6.6894,0.512359,-3.3854010000000003,-3.102885,0,running
5.8590904,6.5390438,2.1011516,5.565857928911437,18.816212542982065,7.615581556506029,12.229582,25.306711,9.873688,-0.80924,-16.462529999999997,-8.734048,0,running
3.2733523999999994,7.4928934,0.8810665999999998,11.206222327248634,8.967498602242088,12.789283815721063,18.83279,17.27177,21.878216,-11.927913,-3.011906,-11.018116,0,running
4.1027044,5.179137200000001,-0.7105989999999998,13.41642118526328,16.1909254718536,4.280297670241172,26.575640000000003,32.57072,4.936844000000001,-8.169016000000001,-8.676587,-4.965574,0,running
1.7257407999999992,8.868123200000001,1.0017345999999998,7.322233101643324,14.617839775700416,11.250711792734394,10.94629,28.031313,13.560759,-8.331821000000001,-11.956643,-16.510414,0,running
4.36032,7.964072799999999,2.747586,4.570992734593493,18.45472535485686,5.9535445213711125,9.653421,25.905262,9.399636,-1.278504,-16.548721,-3.102885,0,running
13.680468199999998,14.0673718,2.5895688000000003,10.806355469646263,13.181120300854047,4.932122232666249,26.355371,32.858025,8.259996000000001,2.063802,-1.345541,-2.863465,0,running
6.4413602,9.4025088,4.7462658,5.087600860929412,18.360355375691743,11.881226376462372,12.229582,25.306711,21.878216,-1.005565,-16.462529999999997,-8.734048,0,running
6.3599576,10.848606800000002,-1.3541603999999996,16.656823799594157,13.872041386822154,6.920981737967873,26.575640000000003,32.57072,4.936844000000001,-11.927913,-1.532289,-11.018116,0,running
2.2199038,7.6461226,1.8521548,5.704452334623255,14.562956169160069,8.02560388995873,10.94629,28.031313,13.560759,-3.691859,-8.676587,-4.965574,0,running
1.0199301999999997,2.001553,-1.5227119999999998,6.0745787686124135,16.848203430268715,9.36747084161304,6.742072,25.589228,8.944737,-8.331821000000001,-16.548721,-16.510414,0,running
10.478941799999998,12.5504052,1.9642034,8.232705682918509,11.393168803150276,5.738664601295523,22.419304,25.905262,9.399636,0.512359,-3.3854010000000003,-3.102885,0,running
9.329725,9.2559842,1.7688364,11.038227273884086,13.55669883893371,4.065398996120468,26.355371,32.858025,8.259996000000001,-0.1292869999999999,-1.345541,-1.723825,0,running
1.9527108,9.0711512,5.059427399999999,9.106524507630132,11.247419370974246,11.249959114336496,12.229582,23.908499,21.878216,-11.927913,-3.011906,-6.272808,0,running
7.409575600000001,10.1178966,-2.4487894,14.8243420943527,14.595463999104853,6.360206120014728,26.575640000000003,32.57072,4.936844000000001,-8.169016000000001,-2.590526,-11.018116,0,running
3.8517918,5.9222974,0.8178597999999999,4.770570045778251,16.66751982990165,11.307307048468624,10.94629,28.031313,13.560759,-1.953669,-11.956643,-16.510414,0,running
2.591484,7.522582,2.5263618,7.318053594547973,18.472272197265102,6.113576334372843,9.653421,25.905262,9.399636,-8.331821000000001,-16.548721,-3.102885,0,running
13.3701796,15.9884792,2.874,11.236992984889987,10.87062778813504,4.654371688972798,26.355371,32.858025,8.259996000000001,0.512359,6.852206,-2.863465,0,running
6.347507799999999,6.6779076,-2.0456058,11.681410893914622,7.4799969226168335,2.2239503026265446,22.117636,18.420988,1.244985,-6.746860000000001,-1.345541,-4.232949,0,running
1.8406622,3.7320816000000008,-2.971683,12.295053170181074,7.693716389772261,5.9617346922343,18.83279,16.017210000000002,2.96881,-11.927913,-3.011906,-11.018116,0,running
7.925765600000001,11.0918576,1.4786591999999998,11.65291795298016,18.3777151399028,7.77713192413866,26.575640000000003,32.57072,13.560759,-3.691859,-8.676587,-4.965574,0,running
0.8848971999999996,-0.0478836000000001,-1.950795,6.145533982888974,13.565002748988068,8.801331877463094,6.742072,15.342045,6.804322,-8.331821000000001,-16.548721,-16.510414,0,running
7.495766399999999,13.5234088,4.3258438,9.419062296816138,12.4266177677349,5.684712523304472,22.419304,25.905262,9.399636,-1.278504,-3.3854010000000003,-3.102885,0,running
9.170750000000002,12.8836786,1.5006858,10.951752947278852,13.751031951915474,4.369618909588307,26.355371,32.858025,8.259996000000001,-0.1292869999999999,-1.345541,-2.863465,0,running
7.378929999999999,2.762909,-3.5252224,11.317944869087828,11.93128740311606,1.3817279095029162,22.117636,18.420988,-1.522712,-6.746860000000001,-13.690045,-5.070919,0,running
9.4456048,10.114065800000002,-2.9410372,13.563962567330195,14.596776656087853,6.583374858084507,26.575640000000003,32.57072,4.936844000000001,-8.169016000000001,-2.590526,-11.018116,0,running
2.6182989999999995,5.7728992,-0.4568132000000006,5.8829968785537785,16.66023247599379,11.420235461816745,10.94629,28.031313,13.560759,-3.691859,-11.956643,-16.510414,0,running
1.8521546,9.573934,3.659298,7.047590409405921,17.502136538486766,5.277271460368558,9.653421,25.905262,9.399636,-8.331821000000001,-16.548721,-1.40779,0,running
9.3335558,8.739794,0.6014238,8.75790147376132,8.670793892355734,4.109254547470344,22.419304,20.72421,6.6894,0.512359,-3.3854010000000003,-3.102885,0,running
12.967954,11.5697406,0.4529832000000001,11.784757360703637,14.023089310710937,4.743154093669707,26.355371,32.858025,8.259996000000001,-0.1292869999999999,-1.345541,-3.993528,0,running
2.0053836,1.4757862000000004,-2.3961169999999994,8.044875542745755,9.526728855812062,2.466503299615774,13.354857,9.045294,0.938527,-6.746860000000001,-13.690045,-5.070919,0,running
4.1027044,5.179137200000001,-0.7105989999999998,13.41642118526328,16.1909254718536,4.280297670241172,26.575640000000003,32.57072,4.936844000000001,-8.169016000000001,-8.676587,-4.965574,0,running
1.7257407999999992,8.868123200000001,1.0017345999999998,7.322233101643324,14.617839775700416,11.250711792734394,10.94629,28.031313,13.560759,-8.331821000000001,-11.956643,-16.510414,0,running
4.36032,7.964072799999999,2.747586,4.570992734593493,18.45472535485686,5.9535445213711125,9.653421,25.905262,9.399636,-1.278504,-16.548721,-3.102885,0,running
13.680468199999998,14.0673718,2.5895688000000003,10.806355469646263,13.181120300854047,4.932122232666249,26.355371,32.858025,8.259996000000001,2.063802,-1.345541,-2.863465,0,running
7.2180396,4.2090068,-2.7150246,11.44210353233453,11.659779433240052,2.578380752530995,22.117636,18.420988,1.244985,-6.746860000000001,-13.690045,-5.070919,0,running
3.995444,8.320329800000001,-0.2288854,8.743064451781024,9.057328953384834,1.8686998597640825,13.383588,22.826319,2.116475,-3.763685,-1.900996,-2.806004,0,running
2.2199038,7.6461226,1.8521548,5.704452334623255,14.562956169160069,8.02560388995873,10.94629,28.031313,13.560759,-3.691859,-8.676587,-4.965574,0,running
1.0199301999999997,2.001553,-1.5227119999999998,6.0745787686124135,16.848203430268715,9.36747084161304,6.742072,25.589228,8.944737,-8.331821000000001,-16.548721,-16.510414,0,running
10.478941799999998,12.5504052,1.9642034,8.232705682918509,11.393168803150276,5.738664601295523,22.419304,25.905262,9.399636,0.512359,-3.3854010000000003,-3.102885,0,running
9.329725,9.2559842,1.7688364,11.038227273884086,13.55669883893371,4.065398996120468,26.355371,32.858025,8.259996000000001,-0.1292869999999999,-1.345541,-1.723825,0,running
3.7579393999999993,4.0548202,-3.0329746,11.393144660019304,12.252696390637665,2.3632688899311267,22.117636,18.420988,0.938527,-6.746860000000001,-13.690045,-5.070919,0,running
7.6087732,9.0223096,0.7584833999999999,7.027356087152956,14.955715050203596,7.086487911742974,13.383588,23.439234,11.372458,-3.763685,-12.785037,-8.303091,0,running
3.8517918,5.9222974,0.8178597999999999,4.770570045778251,16.66751982990165,11.307307048468624,10.94629,28.031313,13.560759,-1.953669,-11.956643,-16.510414,0,running
2.591484,7.522582,2.5263618,7.318053594547973,18.472272197265102,6.113576334372843,9.653421,25.905262,9.399636,-8.331821000000001,-16.548721,-3.102885,0,running
13.3701796,15.9884792,2.874,11.236992984889987,10.87062778813504,4.654371688972798,26.355371,32.858025,8.259996000000001,0.512359,6.852206,-2.863465,0,running
6.347507799999999,6.6779076,-2.0456058,11.681410893914622,7.4799969226168335,2.2239503026265446,22.117636,18.420988,1.244985,-6.746860000000001,-1.345541,-4.232949,0,running
6.0314732,4.361278,-1.1262322,7.594321398113409,13.50296482381686,2.883619767061306,13.383588,22.826319,2.116475,-3.672705,-13.690045,-5.070919,0,running
5.844725199999999,9.269391,1.5916654,5.479328793807659,14.615471934678435,7.94359926822472,9.605537,23.439234,11.372458,-3.763685,-12.785037,-8.303091,0,running
3.0329748,9.5815954,1.4413094000000002,7.733957236811483,16.599510967596117,3.755929617085203,12.909535,28.543673,7.354988,-8.006210000000001,-16.098612,-2.715025,0,running
9.4436896,5.7738566,-0.4070143999999999,12.217179351543312,18.098180675765363,2.93514260009174,30.674513,24.890121,3.610456,1.187524,-14.585477,-4.079719,0,running
5.8351484,6.4260374,-1.9929334,9.965370492236216,12.120082132400457,1.8416480983919807,17.860744,25.665842,0.895431,-3.246537,-3.926491,-3.605668,0,running
10.1025734,13.939041800000002,1.8655622,9.014840113513872,21.24826827982938,5.091698192571286,18.689138,30.004135,10.548853,-0.143652,-20.618866,-1.489193,0,running
8.1364552,-0.2413353999999994,1.0362106,11.73158531774034,12.587831328623263,2.607833444526184,18.784906,15.883134,4.553772,-8.231264999999999,-14.528016,-1.628057,0,running
5.759491800000001,5.362054799999999,-1.7563862,7.258797485628642,19.572342228128807,4.218019680625162,16.70674,25.890898,4.161122,-2.202665,-19.531897,-7.613561,0,running
0.8848971999999996,-0.0478836000000001,-1.950795,6.145533982888974,13.565002748988068,8.801331877463094,6.742072,15.342045,6.804322,-8.331821000000001,-16.548721,-16.510414,0,running
7.495766399999999,13.5234088,4.3258438,9.419062296816138,12.4266177677349,5.684712523304472,22.419304,25.905262,9.399636,-1.278504,-3.3854010000000003,-3.102885,0,running
9.170750000000002,12.8836786,1.5006858,10.951752947278852,13.751031951915474,4.369618909588307,26.355371,32.858025,8.259996000000001,-0.1292869999999999,-1.345541,-2.863465,0,running
7.378929999999999,2.762909,-3.5252224,11.317944869087828,11.93128740311606,1.3817279095029162,22.117636,18.420988,-1.522712,-6.746860000000001,-13.690045,-5.070919,0,running
5.1762642,6.1435216,-1.3283028,8.579698505748771,12.70245417266043,4.076635235062759,13.383588,22.826319,2.116475,-3.763685,-12.785037,-8.303091,0,running
7.9018234,15.9846478,3.0272286,7.410093259165082,6.481131093688292,6.900238301623343,16.859968,23.439234,11.372458,-3.758896,7.857769999999999,-5.272032,0,running
1.8521546,9.573934,3.659298,7.047590409405921,17.502136538486766,5.277271460368558,9.653421,25.905262,9.399636,-8.331821000000001,-16.548721,-1.40779,0,running
9.3335558,8.739794,0.6014238,8.75790147376132,8.670793892355734,4.109254547470344,22.419304,20.72421,6.6894,0.512359,-3.3854010000000003,-3.102885,0,running
12.967954,11.5697406,0.4529832000000001,11.784757360703637,14.023089310710937,4.743154093669707,26.355371,32.858025,8.259996000000001,-0.1292869999999999,-1.345541,-3.993528,0,running
2.0053836,1.4757862000000004,-2.3961169999999994,8.044875542745755,9.526728855812062,2.466503299615774,13.354857,9.045294,0.938527,-6.746860000000001,-13.690045,-5.070919,0,running
6.6003354000000005,12.2631008,2.4823086,6.323135874965111,15.74352414970958,7.636751584618967,13.383588,23.439234,11.372458,-3.763685,-12.785037,-8.303091,0,running
6.249824200000001,9.6974744,-0.7738058000000001,7.63263682353174,11.86405474439145,5.93265257933268,16.859968,22.91251,7.0820490000000005,-3.758896,-9.179369,-6.904877000000001,0,running
4.36032,7.964072799999999,2.747586,4.570992734593493,18.45472535485686,5.9535445213711125,9.653421,25.905262,9.399636,-1.278504,-16.548721,-3.102885,0,running
13.680468199999998,14.0673718,2.5895688000000003,10.806355469646263,13.181120300854047,4.932122232666249,26.355371,32.858025,8.259996000000001,2.063802,-1.345541,-2.863465,0,running
7.2180396,4.2090068,-2.7150246,11.44210353233453,11.659779433240052,2.578380752530995,22.117636,18.420988,1.244985,-6.746860000000001,-13.690045,-5.070919,0,running
3.995444,8.320329800000001,-0.2288854,8.743064451781024,9.057328953384834,1.8686998597640825,13.383588,22.826319,2.116475,-3.763685,-1.900996,-2.806004,0,running
9.9694558,10.840944999999998,0.6540959999999997,4.001224527604167,14.612639809264715,8.52032734806982,16.859968,23.439234,11.372458,6.5792660000000005,-12.785037,-8.303091,0,running
4.0299206,7.6758106,0.0881067999999999,4.881980275467867,14.7612892017747,6.467382281514346,9.509769,22.91251,7.0820490000000005,-3.758896,-9.179369,-6.904877000000001,0,running
10.478941799999998,12.5504052,1.9642034,8.232705682918509,11.393168803150276,5.738664601295523,22.419304,25.905262,9.399636,0.512359,-3.3854010000000003,-3.102885,0,running
9.329725,9.2559842,1.7688364,11.038227273884086,13.55669883893371,4.065398996120468,26.355371,32.858025,8.259996000000001,-0.1292869999999999,-1.345541,-1.723825,0,running
3.7579393999999993,4.0548202,-3.0329746,11.393144660019304,12.252696390637665,2.3632688899311267,22.117636,18.420988,0.938527,-6.746860000000001,-13.690045,-5.070919,0,running
7.6087732,9.0223096,0.7584833999999999,7.027356087152956,14.955715050203596,7.086487911742974,13.383588,23.439234,11.372458,-3.763685,-12.785037,-8.303091,0,running
6.903919999999999,9.4609272,-0.6282384000000002,7.643400988904775,11.5421236648355,6.177475767804379,16.859968,21.729774,7.809886,-3.758896,-9.179369,-6.904877000000001,0,running
2.5225311999999995,10.2969828,3.1871616,6.104250258612658,11.544033914256088,5.75097995049342,9.509769,22.91251,7.1395100000000005,-4.299986,-6.813898,-6.71813,0,running
13.3701796,15.9884792,2.874,11.236992984889987,10.87062778813504,4.654371688972798,26.355371,32.858025,8.259996000000001,0.512359,6.852206,-2.863465,0,running
6.347507799999999,6.6779076,-2.0456058,11.681410893914622,7.4799969226168335,2.2239503026265446,22.117636,18.420988,1.244985,-6.746860000000001,-1.345541,-4.232949,0,running
6.0314732,4.361278,-1.1262322,7.594321398113409,13.50296482381686,2.883619767061306,13.383588,22.826319,2.116475,-3.672705,-13.690045,-5.070919,0,running
5.844725199999999,9.269391,1.5916654,5.479328793807659,14.615471934678435,7.94359926822472,9.605537,23.439234,11.372458,-3.763685,-12.785037,-8.303091,0,running
6.230670600000001,11.831187000000002,0.3773263999999998,7.6222237063853155,12.397820015168897,6.109339632756007,16.859968,22.91251,7.0820490000000005,-3.758896,-9.179369,-6.904877000000001,0,running
2.1298824000000005,2.6441566,1.9258962,5.51349416155824,11.09175799545371,5.438873458443458,6.426038,14.374787,7.1395100000000005,-4.299986,-11.200075,-6.71813,0,running
9.170750000000002,12.8836786,1.5006858,10.951752947278852,13.751031951915474,4.369618909588307,26.355371,32.858025,8.259996000000001,-0.1292869999999999,-1.345541,-2.863465,0,running
7.378929999999999,2.762909,-3.5252224,11.317944869087828,11.93128740311606,1.3817279095029162,22.117636,18.420988,-1.522712,-6.746860000000001,-13.690045,-5.070919,0,running
5.1762642,6.1435216,-1.3283028,8.579698505748771,12.70245417266043,4.076635235062759,13.383588,22.826319,2.116475,-3.763685,-12.785037,-8.303091,0,running
7.9018234,15.9846478,3.0272286,7.410093259165082,6.481131093688292,6.900238301623343,16.859968,23.439234,11.372458,-3.758896,7.857769999999999,-5.272032,0,running
3.9217026,6.4164608,0.8034943999999999,5.098971707582256,14.46624919144433,7.113360947413909,9.509769,22.91251,7.1395100000000005,-4.299986,-9.179369,-6.904877000000001,0,running
6.8828516,10.035535800000002,1.3761873999999996,9.84845003389096,18.13870334466788,2.925233941467639,22.97476,37.18674,5.013458999999999,-3.495534,-11.200075,-1.4987700000000002,0,running
12.967954,11.5697406,0.4529832000000001,11.784757360703637,14.023089310710937,4.743154093669707,26.355371,32.858025,8.259996000000001,-0.1292869999999999,-1.345541,-3.993528,0,running
2.0053836,1.4757862000000004,-2.3961169999999994,8.044875542745755,9.526728855812062,2.466503299615774,13.354857,9.045294,0.938527,-6.746860000000001,-13.690045,-5.070919,0,running
6.6003354000000005,12.2631008,2.4823086,6.323135874965111,15.74352414970958,7.636751584618967,13.383588,23.439234,11.372458,-3.763685,-12.785037,-8.303091,0,running
6.249824200000001,9.6974744,-0.7738058000000001,7.63263682353174,11.86405474439145,5.93265257933268,16.859968,22.91251,7.0820490000000005,-3.758896,-9.179369,-6.904877000000001,0,running
2.799301,3.4744658,1.8205512,6.276009225150088,12.281054031516744,5.39489631492077,9.509769,18.526333,7.1395100000000005,-4.299986,-11.200075,-6.71813,0,running
8.113471,11.3724582,-0.3284844000000001,10.310719553603036,15.55004073614618,2.985546872729065,22.97476,37.18674,3.945645,-3.878607,-0.407014,-4.118027,0,running
7.2180396,4.2090068,-2.7150246,11.44210353233453,11.659779433240052,2.578380752530995,22.117636,18.420988,1.244985,-6.746860000000001,-13.690045,-5.070919,0,running
3.995444,8.320329800000001,-0.2288854,8.743064451781024,9.057328953384834,1.8686998597640825,13.383588,22.826319,2.116475,-3.763685,-1.900996,-2.806004,0,running
9.9694558,10.840944999999998,0.6540959999999997,4.001224527604167,14.612639809264715,8.52032734806982,16.859968,23.439234,11.372458,6.5792660000000005,-12.785037,-8.303091,0,running
4.0299206,7.6758106,0.0881067999999999,4.881980275467867,14.7612892017747,6.467382281514346,9.509769,22.91251,7.0820490000000005,-3.758896,-9.179369,-6.904877000000001,0,running
5.5535908,11.4442842,2.9697681999999994,10.995555017734992,17.38269559049179,3.5315076051545886,22.97476,37.18674,7.1395100000000005,-4.299986,-11.200075,-1.4987700000000002,0,running
6.2900466,5.141788,6.0688226,12.859496642655955,6.004587559494781,16.603657490977515,25.345018,14.882357999999998,35.596992,-5.324704,-0.407014,-4.118027,0,running
3.7579393999999993,4.0548202,-3.0329746,11.393144660019304,12.252696390637665,2.3632688899311267,22.117636,18.420988,0.938527,-6.746860000000001,-13.690045,-5.070919,0,running
7.6087732,9.0223096,0.7584833999999999,7.027356087152956,14.955715050203596,7.086487911742974,13.383588,23.439234,11.372458,-3.763685,-12.785037,-8.303091,0,running
6.903919999999999,9.4609272,-0.6282384000000002,7.643400988904775,11.5421236648355,6.177475767804379,16.859968,21.729774,7.809886,-3.758896,-9.179369,-6.904877000000001,0,running
2.5225311999999995,10.2969828,3.1871616,6.104250258612658,11.544033914256088,5.75097995049342,9.509769,22.91251,7.1395100000000005,-4.299986,-6.813898,-6.71813,0,running
6.806236999999999,8.9600606,-0.4501098,9.950334502326392,18.28362964064201,2.937167611688972,22.97476,37.18674,3.945645,-3.878607,-11.200075,-4.118027,0,running
10.085335,7.503428599999999,8.080909600000002,11.42955789256855,5.591052992001086,16.85461947006761,25.345018,14.882357999999998,35.596992,-5.324704,0.8619129999999999,-6.943185000000001,0,running
6.0314732,4.361278,-1.1262322,7.594321398113409,13.50296482381686,2.883619767061306,13.383588,22.826319,2.116475,-3.672705,-13.690045,-5.070919,0,running
5.844725199999999,9.269391,1.5916654,5.479328793807659,14.615471934678435,7.94359926822472,9.605537,23.439234,11.372458,-3.763685,-12.785037,-8.303091,0,running
6.230670600000001,11.831187000000002,0.3773263999999998,7.6222237063853155,12.397820015168897,6.109339632756007,16.859968,22.91251,7.0820490000000005,-3.758896,-9.179369,-6.904877000000001,0,running
2.1298824000000005,2.6441566,1.9258962,5.51349416155824,11.09175799545371,5.438873458443458,6.426038,14.374787,7.1395100000000005,-4.299986,-11.200075,-6.71813,0,running
11.9499394,11.4739724,6.001785,12.69617966961321,15.576175399483864,16.64079384804989,25.345018,37.18674,35.596992,-3.878607,-0.407014,-4.118027,0,running
3.281972000000001,3.4447778,-0.6014234000000002,8.814586510887594,8.59786126595322,7.377475306051746,13.206416,11.425131,12.057199,-6.062118,-11.228806,-6.943185000000001,0,running
8.187212599999999,3.0530860000000004,0.7929595999999999,14.022758550587874,17.304491230391736,4.512201436615757,30.674513,24.890121,7.354988,-8.006210000000001,-16.098612,-4.079719,0,running
4.912902,7.623138,-0.1359908,6.230391973028504,16.48671561151781,2.4670840753218566,15.35641,25.665842,3.610456,0.550666,-14.585477,-2.499546,0,running
6.3628304,8.177635200000001,-2.0800822,10.934270904967937,9.33805604161076,1.3250113076952212,18.689138,22.256498,-0.7038949999999999,-3.246537,-3.758896,-3.605668,0,running
9.26173,5.852386399999999,2.888365,8.198157381187343,23.848874064346063,5.0008936600248255,15.629349,30.004135,10.548853,-0.205901,-20.618866,-1.489193,0,running
5.2107406,-0.2748540000000005,-0.1264136,11.647194887687776,14.764536453679844,1.8818199578703856,18.784906,15.883134,1.968034,-8.231264999999999,-19.531897,-2.020706,0,running
9.7252476,11.8876908,0.0201113999999996,9.636931206354816,13.732925164057754,5.997407226376978,21.71541,25.890898,7.70933,-2.173935,-9.892841,-7.613561,0,running
5.1762642,6.1435216,-1.3283028,8.579698505748771,12.70245417266043,4.076635235062759,13.383588,22.826319,2.116475,-3.763685,-12.785037,-8.303091,0,running
7.9018234,15.9846478,3.0272286,7.410093259165082,6.481131093688292,6.900238301623343,16.859968,23.439234,11.372458,-3.758896,7.857769999999999,-5.272032,0,running
3.9217026,6.4164608,0.8034943999999999,5.098971707582256,14.46624919144433,7.113360947413909,9.509769,22.91251,7.1395100000000005,-4.299986,-9.179369,-6.904877000000001,0,running
6.8828516,10.035535800000002,1.3761873999999996,9.84845003389096,18.13870334466788,2.925233941467639,22.97476,37.18674,5.013458999999999,-3.495534,-11.200075,-1.4987700000000002,0,running
6.668330399999999,6.1875754,4.845864400000001,12.741763043894291,5.197716820671967,17.44268026616882,25.345018,14.882357999999998,35.596992,-5.324704,0.8619129999999999,-6.943185000000001,0,running
5.8437678,9.577764399999998,4.976108999999999,7.364587153680728,13.081693244058137,7.786202248643012,13.206416,21.188684,12.057199,-6.062118,-11.228806,-3.912125,0,running
6.6003354000000005,12.2631008,2.4823086,6.323135874965111,15.74352414970958,7.636751584618967,13.383588,23.439234,11.372458,-3.763685,-12.785037,-8.303091,0,running
6.249824200000001,9.6974744,-0.7738058000000001,7.63263682353174,11.86405474439145,5.93265257933268,16.859968,22.91251,7.0820490000000005,-3.758896,-9.179369,-6.904877000000001,0,running
2.799301,3.4744658,1.8205512,6.276009225150088,12.281054031516744,5.39489631492077,9.509769,18.526333,7.1395100000000005,-4.299986,-11.200075,-6.71813,0,running
8.113471,11.3724582,-0.3284844000000001,10.310719553603036,15.55004073614618,2.985546872729065,22.97476,37.18674,3.945645,-3.878607,-0.407014,-4.118027,0,running
6.2804698000000005,8.6670106,7.3004000000000016,13.253471419372818,4.325461697990897,17.355683757262273,25.345018,14.882357999999998,35.596992,-6.062118,4.821923,-6.943185000000001,0,running
11.575486800000002,8.7867198,5.171476,11.740175064787229,17.238325469972835,9.01760034003268,32.111034000000004,22.989124,14.930242000000002,3.691859,-11.228806,-4.941632,0,running
9.9694558,10.840944999999998,0.6540959999999997,4.001224527604167,14.612639809264715,8.52032734806982,16.859968,23.439234,11.372458,6.5792660000000005,-12.785037,-8.303091,0,running
4.0299206,7.6758106,0.0881067999999999,4.881980275467867,14.7612892017747,6.467382281514346,9.509769,22.91251,7.0820490000000005,-3.758896,-9.179369,-6.904877000000001,0,running
5.5535908,11.4442842,2.9697681999999994,10.995555017734992,17.38269559049179,3.5315076051545886,22.97476,37.18674,7.1395100000000005,-4.299986,-11.200075,-1.4987700000000002,0,running
6.2900466,5.141788,6.0688226,12.859496642655955,6.004587559494781,16.603657490977515,25.345018,14.882357999999998,35.596992,-5.324704,-0.407014,-4.118027,0,running
5.6340356,6.577350999999998,1.4901512,7.399278877611136,11.80194134504898,8.565107810524058,13.206416,21.188684,12.057199,-6.062118,-11.228806,-6.943185000000001,0,running
6.3092008,5.6943692,0.3620033999999997,15.162986135949634,16.605561917246543,12.067136808748122,32.111034000000004,22.989124,14.930242000000002,-5.252878,-13.939042,-14.413095000000002,0,running
6.903919999999999,9.4609272,-0.6282384000000002,7.643400988904775,11.5421236648355,6.177475767804379,16.859968,21.729774,7.809886,-3.758896,-9.179369,-6.904877000000001,0,running
2.5225311999999995,10.2969828,3.1871616,6.104250258612658,11.544033914256088,5.75097995049342,9.509769,22.91251,7.1395100000000005,-4.299986,-6.813898,-6.71813,0,running
6.806236999999999,8.9600606,-0.4501098,9.950334502326392,18.28362964064201,2.937167611688972,22.97476,37.18674,3.945645,-3.878607,-11.200075,-4.118027,0,running
10.085335,7.503428599999999,8.080909600000002,11.42955789256855,5.591052992001086,16.85461947006761,25.345018,14.882357999999998,35.596992,-5.324704,0.8619129999999999,-6.943185000000001,0,running
3.9408564,5.524859599999999,1.5763427999999997,6.108709760701134,15.314792924479988,7.630980961003028,10.352529,21.188684,10.486604,-6.062118,-11.228806,-4.941632,0,running
4.8650182,11.0545082,7.592492200000001,15.771104882908496,15.33211709778339,16.08630101670375,32.111034000000004,23.554157,22.467188,-5.252878,-13.939042,-14.413095000000002,0,running
6.230670600000001,11.831187000000002,0.3773263999999998,7.6222237063853155,12.397820015168897,6.109339632756007,16.859968,22.91251,7.0820490000000005,-3.758896,-9.179369,-6.904877000000001,0,running
2.1298824000000005,2.6441566,1.9258962,5.51349416155824,11.09175799545371,5.438873458443458,6.426038,14.374787,7.1395100000000005,-4.299986,-11.200075,-6.71813,0,running
11.9499394,11.4739724,6.001785,12.69617966961321,15.576175399483864,16.64079384804989,25.345018,37.18674,35.596992,-3.878607,-0.407014,-4.118027,0,running
3.281972000000001,3.4447778,-0.6014234000000002,8.814586510887594,8.59786126595322,7.377475306051746,13.206416,11.425131,12.057199,-6.062118,-11.228806,-6.943185000000001,0,running
8.4544054,12.7199144,5.1034806,14.002850894921142,13.330325158609533,9.104083725079192,32.111034000000004,22.989124,14.930242000000002,-5.252878,-8.839393,-4.941632,0,running
-0.7383716,3.866157199999999,6.676949599999999,4.703330156833274,16.242977606220055,15.04859729559753,5.0374,23.554157,22.467188,-4.821922,-13.939042,-14.413095000000002,0,running
3.9217026,6.4164608,0.8034943999999999,5.098971707582256,14.46624919144433,7.113360947413909,9.509769,22.91251,7.1395100000000005,-4.299986,-9.179369,-6.904877000000001,0,running
6.8828516,10.035535800000002,1.3761873999999996,9.84845003389096,18.13870334466788,2.925233941467639,22.97476,37.18674,5.013458999999999,-3.495534,-11.200075,-1.4987700000000002,0,running
6.668330399999999,6.1875754,4.845864400000001,12.741763043894291,5.197716820671967,17.44268026616882,25.345018,14.882357999999998,35.596992,-5.324704,0.8619129999999999,-6.943185000000001,0,running
5.8437678,9.577764399999998,4.976108999999999,7.364587153680728,13.081693244058137,7.786202248643012,13.206416,21.188684,12.057199,-6.062118,-11.228806,-3.912125,0,running
6.259401200000001,6.4404026000000005,2.7581202,15.167593299057,17.460825821604864,15.328795886651704,32.111034000000004,23.554157,22.467188,-5.252878,-13.939042,-14.413095000000002,0,running
4.5125914,6.3685768,10.4980956,9.164061495685702,10.700237497260805,9.335943850167764,17.089810999999997,15.246277,21.150377,-4.821922,-11.429919,-0.679953,0,running
2.799301,3.4744658,1.8205512,6.276009225150088,12.281054031516744,5.39489631492077,9.509769,18.526333,7.1395100000000005,-4.299986,-11.200075,-6.71813,0,running
8.113471,11.3724582,-0.3284844000000001,10.310719553603036,15.55004073614618,2.985546872729065,22.97476,37.18674,3.945645,-3.878607,-0.407014,-4.118027,0,running
6.2804698000000005,8.6670106,7.3004000000000016,13.253471419372818,4.325461697990897,17.355683757262273,25.345018,14.882357999999998,35.596992,-6.062118,4.821923,-6.943185000000001,0,running
11.575486800000002,8.7867198,5.171476,11.740175064787229,17.238325469972835,9.01760034003268,32.111034000000004,22.989124,14.930242000000002,3.691859,-11.228806,-4.941632,0,running
-0.8245628,4.170699600000001,4.4704532,4.79983066910237,16.328468749486944,15.818750436365184,5.0374,23.554157,22.467188,-5.252878,-13.939042,-14.413095000000002,0,running
0.4740517999999994,9.1228664,11.3006318,13.079655424908628,3.5476470645422573,8.399690170966498,17.089810999999997,15.246277,21.150377,-16.055517000000002,6.880936,3.011906,0,running
5.5535908,11.4442842,2.9697681999999994,10.995555017734992,17.38269559049179,3.5315076051545886,22.97476,37.18674,7.1395100000000005,-4.299986,-11.200075,-1.4987700000000002,0,running
6.2900466,5.141788,6.0688226,12.859496642655955,6.004587559494781,16.603657490977515,25.345018,14.882357999999998,35.596992,-5.324704,-0.407014,-4.118027,0,running
5.6340356,6.577350999999998,1.4901512,7.399278877611136,11.80194134504898,8.565107810524058,13.206416,21.188684,12.057199,-6.062118,-11.228806,-6.943185000000001,0,running
6.3092008,5.6943692,0.3620033999999997,15.162986135949634,16.605561917246543,12.067136808748122,32.111034000000004,22.989124,14.930242000000002,-5.252878,-13.939042,-14.413095000000002,0,running
2.1021092,9.703221,13.789644,6.10239586974376,13.204759796650826,10.2173765418818,9.911995,23.554157,22.467188,-4.821922,-11.429919,-0.679953,0,running
0.029687999999999,6.670245800000001,6.483498,12.3384794283922,4.000671651838876,8.093106736482845,17.089810999999997,10.012551,19.55105,-16.055517000000002,-0.114922,-2.39899,0,running
6.806236999999999,8.9600606,-0.4501098,9.950334502326392,18.28362964064201,2.937167611688972,22.97476,37.18674,3.945645,-3.878607,-11.200075,-4.118027,0,running
10.085335,7.503428599999999,8.080909600000002,11.42955789256855,5.591052992001086,16.85461947006761,25.345018,14.882357999999998,35.596992,-5.324704,0.8619129999999999,-6.943185000000001,0,running
3.9408564,5.524859599999999,1.5763427999999997,6.108709760701134,15.314792924479988,7.630980961003028,10.352529,21.188684,10.486604,-6.062118,-11.228806,-4.941632,0,running
4.8650182,11.0545082,7.592492200000001,15.771104882908496,15.33211709778339,16.08630101670375,32.111034000000004,23.554157,22.467188,-5.252878,-13.939042,-14.413095000000002,0,running
4.417781,5.0038818,10.56226,9.266716149698471,9.847946997016114,9.41175663811164,17.089810999999997,15.246277,21.150377,-4.821922,-11.429919,-0.679953,0,running
0.5458779999999998,6.993941799999999,0.4443638,11.100909013431624,4.168236544216895,4.87169680475296,13.656527,10.012551,6.244078,-16.055517000000002,-0.114922,-6.277597,0,running
11.9499394,11.4739724,6.001785,12.69617966961321,15.576175399483864,16.64079384804989,25.345018,37.18674,35.596992,-3.878607,-0.407014,-4.118027,0,running
3.281972000000001,3.4447778,-0.6014234000000002,8.814586510887594,8.59786126595322,7.377475306051746,13.206416,11.425131,12.057199,-6.062118,-11.228806,-6.943185000000001,0,running
8.4544054,12.7199144,5.1034806,14.002850894921142,13.330325158609533,9.104083725079192,32.111034000000004,22.989124,14.930242000000002,-5.252878,-8.839393,-4.941632,0,running
-0.7383716,3.866157199999999,6.676949599999999,4.703330156833274,16.242977606220055,15.04859729559753,5.0374,23.554157,22.467188,-4.821922,-13.939042,-14.413095000000002,0,running
2.6297909999999987,7.716991,9.4647578,12.875231948176408,5.498191161375711,10.39968718617508,17.089810999999997,15.246277,21.150377,-16.055517000000002,-0.114922,-2.39899,0,running
2.8376080000000004,4.784572399999999,-0.336146,6.946658668347719,9.026901279995052,4.701004397701144,13.656527,10.012551,6.244078,-3.270479,-11.204864,-6.277597,0,running
6.636727599999999,3.2589872000000013,0.1963244,14.581485400653952,16.822425191610638,3.1534132841692823,30.674513,24.890121,3.610456,-8.006210000000001,-14.585477,-4.079719,0,running
3.4687196,10.7557116,-1.460463,7.494280883606932,11.41854526023851,1.7154950394104904,15.35641,25.665842,0.895431,-3.246537,-3.926491,-3.605668,0,running
10.5689638,7.1864356,-0.923204,9.417100559972438,20.205797125781768,2.066955576692082,18.689138,29.8126,2.30801,-0.143652,-20.618866,-3.394978,0,running
8.0847404,2.5828648000000007,3.4715926,11.689923133430616,17.66864045893753,4.498327390647695,18.784906,30.004135,10.548853,-8.231264999999999,-14.528016,-1.479617,0,running
8.1766778,10.517249799999998,-1.5638924,8.334705907403194,17.870418331726786,4.192319464419463,16.70674,25.890898,4.161122,-2.202665,-19.531897,-7.613561,0,running
7.0427838000000005,4.1850646,1.9507958,9.763840239001004,17.150140377977124,4.487728818074372,21.71541,25.081657,7.70933,-2.173935,-16.788142999999998,-2.590526,0,running
6.668330399999999,6.1875754,4.845864400000001,12.741763043894291,5.197716820671967,17.44268026616882,25.345018,14.882357999999998,35.596992,-5.324704,0.8619129999999999,-6.943185000000001,0,running
5.8437678,9.577764399999998,4.976108999999999,7.364587153680728,13.081693244058137,7.786202248643012,13.206416,21.188684,12.057199,-6.062118,-11.228806,-3.912125,0,running
6.259401200000001,6.4404026000000005,2.7581202,15.167593299057,17.460825821604864,15.328795886651704,32.111034000000004,23.554157,22.467188,-5.252878,-13.939042,-14.413095000000002,0,running
4.5125914,6.3685768,10.4980956,9.164061495685702,10.700237497260805,9.335943850167764,17.089810999999997,15.246277,21.150377,-4.821922,-11.429919,-0.679953,0,running
-2.936249,7.141424599999999,4.026089399999999,8.350081494756504,4.166965666128508,9.930005560874164,5.956774,10.012551,19.55105,-16.055517000000002,-0.114922,-6.277597,0,running
5.4626108,8.036856199999999,6.017107600000001,9.39016711679764,14.533419821418484,11.257758597793805,16.338032000000002,29.640217,25.19179,-4.041412,-11.204864,-2.753332,0,running
6.2804698000000005,8.6670106,7.3004000000000016,13.253471419372818,4.325461697990897,17.355683757262273,25.345018,14.882357999999998,35.596992,-6.062118,4.821923,-6.943185000000001,0,running
11.575486800000002,8.7867198,5.171476,11.740175064787229,17.238325469972835,9.01760034003268,32.111034000000004,22.989124,14.930242000000002,3.691859,-11.228806,-4.941632,0,running
-0.8245628,4.170699600000001,4.4704532,4.79983066910237,16.328468749486944,15.818750436365184,5.0374,23.554157,22.467188,-5.252878,-13.939042,-14.413095000000002,0,running
0.4740517999999994,9.1228664,11.3006318,13.079655424908628,3.5476470645422573,8.399690170966498,17.089810999999997,15.246277,21.150377,-16.055517000000002,6.880936,3.011906,0,running
3.1028856,7.0025608,-0.7086838,7.056690959137384,4.173888868561872,4.793722735802228,13.656527,10.012551,6.244078,-3.270479,-0.114922,-6.277597,0,running
7.3636066,12.0859308,9.2856718,9.504063817032732,16.376025501275063,9.700925414480812,18.004396,29.640217,25.19179,-4.041412,-11.204864,-0.536301,0,running
5.6340356,6.577350999999998,1.4901512,7.399278877611136,11.80194134504898,8.565107810524058,13.206416,21.188684,12.057199,-6.062118,-11.228806,-6.943185000000001,0,running
6.3092008,5.6943692,0.3620033999999997,15.162986135949634,16.605561917246543,12.067136808748122,32.111034000000004,22.989124,14.930242000000002,-5.252878,-13.939042,-14.413095000000002,0,running
2.1021092,9.703221,13.789644,6.10239586974376,13.204759796650826,10.2173765418818,9.911995,23.554157,22.467188,-4.821922,-11.429919,-0.679953,0,running
0.029687999999999,6.670245800000001,6.483498,12.3384794283922,4.000671651838876,8.093106736482845,17.089810999999997,10.012551,19.55105,-16.055517000000002,-0.114922,-2.39899,0,running
6.7229184,8.7101056,3.4533964,8.134625639876939,14.485872778271291,12.499707795702198,16.338032000000002,29.640217,25.19179,-3.270479,-11.204864,-6.277597,0,running
2.9084762,7.3636076,2.759078,8.725346685035426,13.40480028096319,6.451488498224692,18.004396,25.546135,10.247183,-4.041412,-12.009315,-4.204218,0,running
3.9408564,5.524859599999999,1.5763427999999997,6.108709760701134,15.314792924479988,7.630980961003028,10.352529,21.188684,10.486604,-6.062118,-11.228806,-4.941632,0,running
4.8650182,11.0545082,7.592492200000001,15.771104882908496,15.33211709778339,16.08630101670375,32.111034000000004,23.554157,22.467188,-5.252878,-13.939042,-14.413095000000002,0,running
4.417781,5.0038818,10.56226,9.266716149698471,9.847946997016114,9.41175663811164,17.089810999999997,15.246277,21.150377,-4.821922,-11.429919,-0.679953,0,running
0.5458779999999998,6.993941799999999,0.4443638,11.100909013431624,4.168236544216895,4.87169680475296,13.656527,10.012551,6.244078,-16.055517000000002,-0.114922,-6.277597,0,running
6.3321846,11.812034,6.6855688,10.4770734733946,16.418956653604088,11.029984658250015,18.004396,29.640217,25.19179,-4.041412,-11.204864,-2.753332,0,running
0.3294423999999999,9.8966722,6.042965000000001,2.940308524417259,14.022867474771404,9.2855851717318,4.29041,23.008278,14.188039000000002,-3.222595,-12.009315,-4.204218,0,running
8.4544054,12.7199144,5.1034806,14.002850894921142,13.330325158609533,9.104083725079192,32.111034000000004,22.989124,14.930242000000002,-5.252878,-8.839393,-4.941632,0,running
-0.7383716,3.866157199999999,6.676949599999999,4.703330156833274,16.242977606220055,15.04859729559753,5.0374,23.554157,22.467188,-4.821922,-13.939042,-14.413095000000002,0,running
2.6297909999999987,7.716991,9.4647578,12.875231948176408,5.498191161375711,10.39968718617508,17.089810999999997,15.246277,21.150377,-16.055517000000002,-0.114922,-2.39899,0,running
2.8376080000000004,4.784572399999999,-0.336146,6.946658668347719,9.026901279995052,4.701004397701144,13.656527,10.012551,6.244078,-3.270479,-11.204864,-6.277597,0,running
6.1109604,15.693514,8.6382796,10.331129538728195,11.099044727146747,10.587738599377786,18.004396,29.640217,25.19179,-4.041412,5.870583,-3.773262,0,running
0.8082828,7.626969,6.0793572,4.411226230614306,15.940503359237075,9.369129089022426,6.258444,23.008278,14.188039000000002,-3.610456,-12.009315,-4.204218,0,running
6.259401200000001,6.4404026000000005,2.7581202,15.167593299057,17.460825821604864,15.328795886651704,32.111034000000004,23.554157,22.467188,-5.252878,-13.939042,-14.413095000000002,0,running
4.5125914,6.3685768,10.4980956,9.164061495685702,10.700237497260805,9.335943850167764,17.089810999999997,15.246277,21.150377,-4.821922,-11.429919,-0.679953,0,running
-2.936249,7.141424599999999,4.026089399999999,8.350081494756504,4.166965666128508,9.930005560874164,5.956774,10.012551,19.55105,-16.055517000000002,-0.114922,-6.277597,0,running
5.4626108,8.036856199999999,6.017107600000001,9.39016711679764,14.533419821418484,11.257758597793805,16.338032000000002,29.640217,25.19179,-4.041412,-11.204864,-2.753332,0,running
4.5748406,10.7911466,4.288494000000001,7.814276079128847,15.02116135470115,8.232705729390885,18.004396,25.546135,14.188039000000002,-1.632845,-12.009315,-4.204218,0,running
2.3539794,5.770983800000001,3.9571368,5.928147257086003,14.998518082297188,7.89250081203513,10.012551,21.073763,13.757082999999998,-3.610456,-13.824121,-3.936067,0,running
-0.8245628,4.170699600000001,4.4704532,4.79983066910237,16.328468749486944,15.818750436365184,5.0374,23.554157,22.467188,-5.252878,-13.939042,-14.413095000000002,0,running
0.4740517999999994,9.1228664,11.3006318,13.079655424908628,3.5476470645422573,8.399690170966498,17.089810999999997,15.246277,21.150377,-16.055517000000002,6.880936,3.011906,0,running
3.1028856,7.0025608,-0.7086838,7.056690959137384,4.173888868561872,4.793722735802228,13.656527,10.012551,6.244078,-3.270479,-0.114922,-6.277597,0,running
7.3636066,12.0859308,9.2856718,9.504063817032732,16.376025501275063,9.700925414480812,18.004396,29.640217,25.19179,-4.041412,-11.204864,-0.536301,0,running
1.2038049999999998,6.5371284,3.206314999999999,3.983946872464604,15.727511271474624,9.830578346147062,6.258444,23.008278,14.188039000000002,-3.222595,-12.009315,-4.204218,0,running
9.1726654,10.8715914,7.5934504,15.136926573898196,15.997330557152289,8.719224980195477,34.830845000000004,30.588322,20.231005,-3.610456,-13.824121,-2.585738,0,running
2.1021092,9.703221,13.789644,6.10239586974376,13.204759796650826,10.2173765418818,9.911995,23.554157,22.467188,-4.821922,-11.429919,-0.679953,0,running
0.029687999999999,6.670245800000001,6.483498,12.3384794283922,4.000671651838876,8.093106736482845,17.089810999999997,10.012551,19.55105,-16.055517000000002,-0.114922,-2.39899,0,running
6.7229184,8.7101056,3.4533964,8.134625639876939,14.485872778271291,12.499707795702198,16.338032000000002,29.640217,25.19179,-3.270479,-11.204864,-6.277597,0,running
2.9084762,7.3636076,2.759078,8.725346685035426,13.40480028096319,6.451488498224692,18.004396,25.546135,10.247183,-4.041412,-12.009315,-4.204218,0,running
1.2095512,13.1374636,7.3118922,4.447448273962801,11.636722419299527,7.9805467619744705,6.258444,23.008278,14.188039000000002,-3.610456,-6.220136,-3.936067,0,running
9.7980308,6.290047,3.5108574,14.81327777273591,16.175872366906383,10.634650565791068,34.830845000000004,30.588322,20.231005,-3.394978,-13.824121,-5.765238,0,running
4.417781,5.0038818,10.56226,9.266716149698471,9.847946997016114,9.41175663811164,17.089810999999997,15.246277,21.150377,-4.821922,-11.429919,-0.679953,0,running
0.5458779999999998,6.993941799999999,0.4443638,11.100909013431624,4.168236544216895,4.87169680475296,13.656527,10.012551,6.244078,-16.055517000000002,-0.114922,-6.277597,0,running
6.3321846,11.812034,6.6855688,10.4770734733946,16.418956653604088,11.029984658250015,18.004396,29.640217,25.19179,-4.041412,-11.204864,-2.753332,0,running
0.3294423999999999,9.8966722,6.042965000000001,2.940308524417259,14.022867474771404,9.2855851717318,4.29041,23.008278,14.188039000000002,-3.222595,-12.009315,-4.204218,0,running
3.4581852,3.5098997999999995,2.7600359999999995,5.083804446862183,12.806868310740285,6.334667481789079,10.012551,15.543157999999998,10.591949,-3.610456,-13.824121,-3.936067,0,running
6.486371,9.4877424,7.676768200000001,16.208757887545918,15.955497041272023,19.977686999820616,34.830845000000004,30.588322,36.521152,-3.394978,-8.853758000000001,-10.505757,0,running
2.6297909999999987,7.716991,9.4647578,12.875231948176408,5.498191161375711,10.39968718617508,17.089810999999997,15.246277,21.150377,-16.055517000000002,-0.114922,-2.39899,0,running
2.8376080000000004,4.784572399999999,-0.336146,6.946658668347719,9.026901279995052,4.701004397701144,13.656527,10.012551,6.244078,-3.270479,-11.204864,-6.277597,0,running
6.1109604,15.693514,8.6382796,10.331129538728195,11.099044727146747,10.587738599377786,18.004396,29.640217,25.19179,-4.041412,5.870583,-3.773262,0,running
0.8082828,7.626969,6.0793572,4.411226230614306,15.940503359237075,9.369129089022426,6.258444,23.008278,14.188039000000002,-3.610456,-12.009315,-4.204218,0,running
10.943417,8.455363,4.322013,13.719147953425807,16.63081987536139,10.247580026822892,34.830845000000004,30.588322,20.231005,2.298434,-13.824121,-5.765238,0,running
-2.809835,3.2944214,7.033206799999999,1.05733425962843,11.678465491675365,18.662989021000648,-1.991976,20.786457,36.521152,-4.395754,-8.853758000000001,-10.505757,0,running
10.9376714,13.3864604,-1.1310208,12.433959579816634,16.47666921038047,2.9105305796489582,30.674513,25.665842,3.610456,1.187524,-14.585477,-4.079719,0,running
6.5016940000000005,5.7441686,-1.760217,10.834939399772916,10.789974977316156,1.835132060994249,18.689138,22.256498,0.895431,-3.246537,-3.926491,-3.605668,0,running
6.3235656,6.582139,1.8368316,8.45872954633338,23.85649192396483,5.114633138624881,15.629349,30.004135,10.548853,-0.205901,-20.618866,-1.489193,0,running
7.737102399999999,4.5499412,0.9279928000000002,12.114304174381138,10.10477900402934,2.7459049611561035,18.784906,15.883134,4.553772,-8.231264999999999,-11.453861,-2.020706,0,running
10.5431068,5.9079326,-1.6654066,8.478518238844195,19.751348486933274,4.215798523415439,21.71541,25.890898,4.161122,1.915361,-19.531897,-7.613561,0,running
2.34536,3.778050200000001,2.7562052,5.445329725670568,18.64920870817528,4.229562871311845,11.803414,25.081657,7.70933,-2.173935,-16.788142999999998,-3.155558,0,running
8.429505200000001,4.7175352,2.2783223999999995,9.246654604607372,8.987349358796992,4.22263399436629,22.141577,17.166426,7.1969710000000005,1.58975,-6.933608,-4.003105000000001,0,running
7.393295,2.539768999999999,4.0969582,13.61352038873799,11.177243862155017,5.79983551341391,22.720974,12.014104,11.377247,-3.2321720000000003,-16.778566,-3.552995,0,running
3.914041,11.534306,3.6583404,8.016038090127878,4.453759879050844,3.6460259241391584,12.483368,18.50239,9.562442,-7.220911999999999,8.010999,0.052672,0,running
9.0385904,3.568318200000001,2.4123976,15.709879135308658,14.304290312910256,6.378669438519353,25.914839,14.264654,8.872911,-10.994174,-20.269312,-6.234501,0,running
7.882669999999999,4.505887599999999,-0.9404422,11.130525829362847,12.218834207081551,4.302091519596102,22.031445,18.406622,2.384625,-3.126827,-13.206416,-7.254430999999999,0,running
12.354080799999998,15.398548,3.937983000000001,9.871549579182146,12.798842857348337,6.136237259619693,26.499025,26.015396,11.324574,4.003105000000001,-6.0764830000000005,-3.620033,0,running
-2.936249,7.141424599999999,4.026089399999999,8.350081494756504,4.166965666128508,9.930005560874164,5.956774,10.012551,19.55105,-16.055517000000002,-0.114922,-6.277597,0,running
5.4626108,8.036856199999999,6.017107600000001,9.39016711679764,14.533419821418484,11.257758597793805,16.338032000000002,29.640217,25.19179,-4.041412,-11.204864,-2.753332,0,running
4.5748406,10.7911466,4.288494000000001,7.814276079128847,15.02116135470115,8.232705729390885,18.004396,25.546135,14.188039000000002,-1.632845,-12.009315,-4.204218,0,running
2.3539794,5.770983800000001,3.9571368,5.928147257086003,14.998518082297188,7.89250081203513,10.012551,21.073763,13.757082999999998,-3.610456,-13.824121,-3.936067,0,running
7.3971254,7.284119599999999,1.9268536,15.715194090576954,14.717757651874397,12.23861546704564,34.830845000000004,30.588322,20.231005,-3.394978,-8.853758000000001,-10.505757,0,running
0.0900223999999994,9.7750462,10.539275800000002,9.625234095431772,10.860443560749772,16.295292132707722,16.816874,20.786457,36.521152,-7.704541000000001,-5.880159,-3.845088,0,running
3.1028856,7.0025608,-0.7086838,7.056690959137384,4.173888868561872,4.793722735802228,13.656527,10.012551,6.244078,-3.270479,-0.114922,-6.277597,0,running
7.3636066,12.0859308,9.2856718,9.504063817032732,16.376025501275063,9.700925414480812,18.004396,29.640217,25.19179,-4.041412,-11.204864,-0.536301,0,running
1.2038049999999998,6.5371284,3.206314999999999,3.983946872464604,15.727511271474624,9.830578346147062,6.258444,23.008278,14.188039000000002,-3.222595,-12.009315,-4.204218,0,running
9.1726654,10.8715914,7.5934504,15.136926573898196,15.997330557152289,8.719224980195477,34.830845000000004,30.588322,20.231005,-3.610456,-13.824121,-2.585738,0,running
-0.8820238,4.5106758,3.1507692,3.4722982050191487,10.765053210212882,18.959961882778103,5.243302,20.786457,36.521152,-3.394978,-8.853758000000001,-10.505757,0,running
3.9619252,4.921520800000001,5.564125,10.943056544749584,13.730516527321075,8.8706703181938,16.816874,19.177555,13.64695,-7.704541000000001,-12.813767,-4.003105000000001,0,running
6.7229184,8.7101056,3.4533964,8.134625639876939,14.485872778271291,12.499707795702198,16.338032000000002,29.640217,25.19179,-3.270479,-11.204864,-6.277597,0,running
2.9084762,7.3636076,2.759078,8.725346685035426,13.40480028096319,6.451488498224692,18.004396,25.546135,10.247183,-4.041412,-12.009315,-4.204218,0,running
1.2095512,13.1374636,7.3118922,4.447448273962801,11.636722419299527,7.9805467619744705,6.258444,23.008278,14.188039000000002,-3.610456,-6.220136,-3.936067,0,running
9.7980308,6.290047,3.5108574,14.81327777273591,16.175872366906383,10.634650565791068,34.830845000000004,30.588322,20.231005,-3.394978,-13.824121,-5.765238,0,running
1.2325353999999995,6.1866168,9.207142,8.769739798485858,13.729290380083642,17.95311090088538,16.816874,20.786457,36.521152,-4.395754,-8.853758000000001,-10.505757,0,running
1.5045162,4.063439000000001,4.629428800000001,9.945005616917,10.68520963356253,11.859754831613412,13.953407,15.035586,21.241358,-8.63828,-12.813767,-4.003105000000001,0,running
6.3321846,11.812034,6.6855688,10.4770734733946,16.418956653604088,11.029984658250015,18.004396,29.640217,25.19179,-4.041412,-11.204864,-2.753332,0,running
0.3294423999999999,9.8966722,6.042965000000001,2.940308524417259,14.022867474771404,9.2855851717318,4.29041,23.008278,14.188039000000002,-3.222595,-12.009315,-4.204218,0,running
3.4581852,3.5098997999999995,2.7600359999999995,5.083804446862183,12.806868310740285,6.334667481789079,10.012551,15.543157999999998,10.591949,-3.610456,-13.824121,-3.936067,0,running
6.486371,9.4877424,7.676768200000001,16.208757887545918,15.955497041272023,19.977686999820616,34.830845000000004,30.588322,36.521152,-3.394978,-8.853758000000001,-10.505757,0,running
3.3317714,3.0550014,2.4344244,11.233082389020312,12.599655161481872,8.217755930617816,16.816874,19.177555,13.64695,-7.704541000000001,-12.813767,-4.003105000000001,0,running
4.873637,13.026372600000002,10.82275,12.520891414615235,10.275756674070204,12.87252643864597,24.320301,28.735209,24.641125,-8.63828,0.909797,-3.495534,0,running
6.1109604,15.693514,8.6382796,10.331129538728195,11.099044727146747,10.587738599377786,18.004396,29.640217,25.19179,-4.041412,5.870583,-3.773262,0,running
0.8082828,7.626969,6.0793572,4.411226230614306,15.940503359237075,9.369129089022426,6.258444,23.008278,14.188039000000002,-3.610456,-12.009315,-4.204218,0,running
10.943417,8.455363,4.322013,13.719147953425807,16.63081987536139,10.247580026822892,34.830845000000004,30.588322,20.231005,2.298434,-13.824121,-5.765238,0,running
-2.809835,3.2944214,7.033206799999999,1.05733425962843,11.678465491675365,18.662989021000648,-1.991976,20.786457,36.521152,-4.395754,-8.853758000000001,-10.505757,0,running
3.11342,7.7169906,7.0830066,11.877673491326131,12.333325461738708,10.99617814922427,16.816874,19.177555,21.241358,-8.63828,-12.813767,-4.003105000000001,0,running
9.1602158,7.318595999999999,2.907519,10.575586867280402,15.60247971517092,13.05151846960996,24.320301,28.735209,24.641125,-1.225831,-13.833697,-9.212888,0,running
4.5748406,10.7911466,4.288494000000001,7.814276079128847,15.02116135470115,8.232705729390885,18.004396,25.546135,14.188039000000002,-1.632845,-12.009315,-4.204218,0,running
2.3539794,5.770983800000001,3.9571368,5.928147257086003,14.998518082297188,7.89250081203513,10.012551,21.073763,13.757082999999998,-3.610456,-13.824121,-3.936067,0,running
