mean_accelerometer_X,mean_accelerometer_Y,mean_accelerometer_Z,std_accelerometer_X,std_accelerometer_Y,std_accelerometer_Z,max_accelerometer_X,max_accelerometer_Y,max_accelerometer_Z,min_accelerometer_X,min_accelerometer_Y,min_accelerometer_Z,time_diff,activity
0.7307106000000001,-9.9455136,-2.0331559999999995,3.1386547214350133,8.103299510496099,5.055087676354782,5.152323,-2.782062,2.39899,-2.346318,-22.720974,-10.491392,0,stairs
0.0948106,-10.970232,-1.8301278,1.908046576469715,4.197264254589113,5.249345465585467,2.331953,-7.465121000000001,6.7516490000000005,-1.80044,-17.501614,-7.407660000000001,0,stairs
1.0496184,-8.102936,-3.624821,2.6409823060530524,3.197096288325392,3.083107144632424,3.222596,-2.715025,0.148441,-3.457227,-10.903194,-8.183380999999999,0,stairs
0.7690176000000004,-11.1138842,-6.8617818,5.383981670495759,2.4183023210225807,12.181943143060089,8.39886,-7.383717999999999,6.775591,-6.224924,-13.771448,-26.230873,0,stairs
2.2907724,-8.9351606,-6.4394448,1.3437878497303062,2.701599851495277,3.886667023377704,3.945645,-6.502651,-3.572149,0.7230489999999999,-11.96622,-12.555194,0,stairs
0.2547432,-7.146213,-2.0197486,1.926115152047172,2.690402064744505,2.4098500746015925,2.801216,-3.380613,0.205901,-1.608903,-10.146626,-5.133168,0,stairs
0.1915362,-10.5478948,-3.2800564000000003,3.187185675238454,7.429505745225431,4.320202940368809,5.152323,-3.270479,1.063026,-2.346318,-22.720974,-10.491392,0,stairs
0.745076,-10.2883634,-1.4796163999999998,2.649849493802148,5.401685575458674,5.327475976670407,3.222596,-2.715025,6.7516490000000005,-3.457227,-17.501614,-7.407660000000001,0,stairs
2.4468744,-10.9003212,-2.1950037999999994,3.687420586064641,2.1355705684188244,5.53542281512268,8.39886,-8.044516999999999,6.775591,-1.647211,-13.771448,-8.183380999999999,0,stairs
-0.1819594,-8.664137,-9.2339568,3.4507761852135963,2.502124346322041,9.74163461853996,2.494758,-6.502651,-3.572149,-6.224924,-12.23437,-26.230873,0,stairs
2.1815968,-8.8020432,-5.947197,2.073010101544298,3.533297270723722,4.686671739230837,3.945645,-3.380613,-0.057461,-1.35033,-11.96622,-12.555194,0,stairs
-0.2825156,-7.2726266,-1.667322,1.2144195685780512,2.409355413533109,1.555849389026136,1.685518,-4.13718,0.205901,-1.608903,-10.146626,-3.998317,0,stairs
-0.8408436,-9.675447600000002,-0.1359905999999999,1.668803895450511,5.474242191834346,4.275905765874326,1.7525560000000002,-3.270479,6.7516490000000005,-2.346318,-17.501614,-3.801992,0,stairs
1.0706874,-8.4429128,-4.6380472,2.6531117653420293,3.2786724505228024,3.374614590659162,3.222596,-2.715025,0.148441,-3.457227,-10.903194,-8.183380999999999,0,stairs
2.459324,-10.2759136,-2.0839130000000003,3.7038056966279296,2.647984960850666,5.584124709274454,8.39886,-7.383717999999999,6.775591,-1.647211,-13.771448,-8.690952000000001,0,stairs
0.2566586,-9.0299708,-10.0661814,3.752114411845712,2.8307633617204213,9.792996750499578,3.284845,-6.502651,-3.572149,-6.224924,-12.23437,-26.230873,0,stairs
0.7067686,-7.4689516,-3.416047,2.5196072647083905,3.1906013566780485,3.5213367455445805,3.945645,-3.380613,0.205901,-1.608903,-11.760319,-8.09719,0,stairs
-0.2317588,-6.74686,-1.5150508000000005,1.131429970976198,2.8107008371469377,1.31636500986702,1.685518,-4.13718,0.253785,-1.278504,-10.146626,-3.284845,0,stairs
1.0764334,-11.2383826,-2.123178,2.0222587574904454,3.962807999098404,5.275743538486637,3.222596,-7.465121000000001,6.7516490000000005,-1.80044,-17.501614,-7.407660000000001,0,stairs
0.075657,-8.6890366,-1.6519988,2.535113571553255,3.624550092075472,5.622344095308753,2.264915,-2.715025,6.775591,-3.457227,-11.851298,-8.183380999999999,0,stairs
1.3532028000000005,-10.0441548,-8.931329800000002,5.211986943372719,3.098016786174778,9.96277518332782,8.39886,-6.502651,-2.566584,-6.224924,-13.771448,-26.230873,0,stairs
2.5962726,-9.5001924,-6.7516486,1.222963428849898,2.336414611780688,3.654529381886784,3.945645,-6.871359,-3.892972,0.7230489999999999,-11.96622,-12.555194,0,stairs
-0.4003103999999999,-6.108087,-1.2430696,1.2981545501038387,2.639102084290508,1.6667963468374891,1.685518,-3.380613,0.205901,-1.608903,-10.146626,-3.998317,0,stairs
0.1398213999999999,-7.2161238,-2.6451138,1.3180137569228176,2.1473920225102585,1.7878756059449996,1.613692,-4.1419690000000005,0.253785,-1.278504,-9.203311,-4.151545,0,stairs
1.2229586,-9.7625968,-3.7617694,2.669208782895467,5.251143368348383,2.731408847651666,3.222596,-2.715025,0.148441,-3.457227,-17.501614,-7.407660000000001,0,stairs
2.4928430000000006,-10.9798088,-3.001371,3.686017511119013,2.097536677880437,6.233738379685139,8.39886,-8.044516999999999,6.775591,-1.647211,-13.771448,-8.690952000000001,0,stairs
-0.2355893999999999,-8.1134704,-10.0068052,3.400493534699382,2.342093552851871,9.840567428297424,2.226608,-6.502651,-3.572149,-6.224924,-12.23437,-26.230873,0,stairs
1.6855182,-8.561665399999999,-3.394978,2.3392344977136648,3.675639979563736,3.5172947520434645,3.945645,-3.380613,0.205901,-1.35033,-11.96622,-8.09719,0,stairs
-0.4874594,-6.8263474,-1.6577452,1.2923251519980563,2.793586135969553,1.5703421926096872,1.685518,-4.13718,0.253785,-1.608903,-10.146626,-3.998317,0,stairs
0.2815584,-7.9228922000000015,-2.6499022,1.7609980056321188,1.5167022647839292,1.9325897027120629,1.613692,-6.105214,0.636858,-2.54743,-9.792285,-4.151545,0,stairs
1.0496184,-8.102936,-3.624821,2.6409823060530524,3.197096288325392,3.083107144632424,3.222596,-2.715025,0.148441,-3.457227,-10.903194,-8.183380999999999,0,stairs
0.7690176000000004,-11.1138842,-6.8617818,5.383981670495759,2.4183023210225807,12.181943143060089,8.39886,-7.383717999999999,6.775591,-6.224924,-13.771448,-26.230873,0,stairs
2.2907724,-8.9351606,-6.4394448,1.3437878497303062,2.701599851495277,3.886667023377704,3.945645,-6.502651,-3.572149,0.7230489999999999,-11.96622,-12.555194,0,stairs
0.2547432,-7.146213,-2.0197486,1.926115152047172,2.690402064744505,2.4098500746015925,2.801216,-3.380613,0.205901,-1.608903,-10.146626,-5.133168,0,stairs
-0.2777274,-6.213432,-2.0647594,1.0345834980231416,2.188364779290349,1.641613655001322,1.455675,-4.13718,0.253785,-1.278504,-9.203311,-3.864241,0,stairs
-0.8054092,-8.0215334,-2.1519082,2.145531689493003,2.1609854791022545,1.7363247907090136,1.613692,-4.644751,0.636858,-3.102885,-9.792285,-4.151545,0,stairs
2.4468744,-10.9003212,-2.1950037999999994,3.687420586064641,2.1355705684188244,5.53542281512268,8.39886,-8.044516999999999,6.775591,-1.647211,-13.771448,-8.183380999999999,0,stairs
-0.1819594,-8.664137,-9.2339568,3.4507761852135963,2.502124346322041,9.74163461853996,2.494758,-6.502651,-3.572149,-6.224924,-12.23437,-26.230873,0,stairs
2.1815968,-8.8020432,-5.947197,2.073010101544298,3.533297270723722,4.686671739230837,3.945645,-3.380613,-0.057461,-1.35033,-11.96622,-12.555194,0,stairs
-0.2825156,-7.2726266,-1.667322,1.2144195685780512,2.409355413533109,1.555849389026136,1.685518,-4.13718,0.205901,-1.608903,-10.146626,-3.998317,0,stairs
0.5353436,-7.3339186,-2.0819976,1.2760329726563888,2.294748650689721,2.3320761122598035,1.613692,-4.1419690000000005,0.636858,-1.278504,-9.792285,-4.151545,0,stairs
-1.9565414,-7.025545399999999,-1.4585475999999995,1.4837158165729716,2.333211705023528,1.4655824538461832,0.282516,-4.644751,0.885855,-3.20823,-9.433155,-2.585738,0,stairs
2.459324,-10.2759136,-2.0839130000000003,3.7038056966279296,2.647984960850666,5.584124709274454,8.39886,-7.383717999999999,6.775591,-1.647211,-13.771448,-8.690952000000001,0,stairs
0.2566586,-9.0299708,-10.0661814,3.752114411845712,2.8307633617204213,9.792996750499578,3.284845,-6.502651,-3.572149,-6.224924,-12.23437,-26.230873,0,stairs
0.7067686,-7.4689516,-3.416047,2.5196072647083905,3.1906013566780485,3.5213367455445805,3.945645,-3.380613,0.205901,-1.608903,-11.760319,-8.09719,0,stairs
-0.2317588,-6.74686,-1.5150508000000005,1.131429970976198,2.8107008371469377,1.31636500986702,1.685518,-4.13718,0.253785,-1.278504,-10.146626,-3.284845,0,stairs
0.1063028,-8.5884804,-2.4334662,1.8769148739126928,1.2210082377297051,1.904091507742393,1.613692,-7.086836999999999,0.636858,-2.54743,-9.792285,-4.151545,0,stairs
-1.8942922,-6.715256799999999,-1.5112200000000002,3.250290271200743,2.137617434530136,1.618393925239155,2.418144,-4.644751,0.885855,-5.861006,-9.251195,-3.375824,0,stairs
1.3532028000000005,-10.0441548,-8.931329800000002,5.211986943372719,3.098016786174778,9.96277518332782,8.39886,-6.502651,-2.566584,-6.224924,-13.771448,-26.230873,0,stairs
2.5962726,-9.5001924,-6.7516486,1.222963428849898,2.336414611780688,3.654529381886784,3.945645,-6.871359,-3.892972,0.7230489999999999,-11.96622,-12.555194,0,stairs
-0.4003103999999999,-6.108087,-1.2430696,1.2981545501038387,2.639102084290508,1.6667963468374891,1.685518,-3.380613,0.205901,-1.608903,-10.146626,-3.998317,0,stairs
0.1398213999999999,-7.2161238,-2.6451138,1.3180137569228176,2.1473920225102585,1.7878756059449996,1.613692,-4.1419690000000005,0.253785,-1.278504,-9.203311,-4.151545,0,stairs
-1.0716443999999998,-8.0416446,-1.508347,1.82964133362479,2.1745458638701547,1.3669152216313565,1.216255,-4.644751,0.636858,-3.102885,-9.792285,-2.585738,0,stairs
-2.2993912,-6.825390199999999,-1.8866306,4.840768305346343,1.6297027434718585,1.700759740993507,2.959233,-4.711789,0.885855,-7.805097,-8.571242,-3.375824,0,stairs
-0.2355893999999999,-8.1134704,-10.0068052,3.400493534699382,2.342093552851871,9.840567428297424,2.226608,-6.502651,-3.572149,-6.224924,-12.23437,-26.230873,0,stairs
1.6855182,-8.561665399999999,-3.394978,2.3392344977136648,3.675639979563736,3.5172947520434645,3.945645,-3.380613,0.205901,-1.35033,-11.96622,-8.09719,0,stairs
-0.4874594,-6.8263474,-1.6577452,1.2923251519980563,2.793586135969553,1.5703421926096872,1.685518,-4.13718,0.253785,-1.608903,-10.146626,-3.998317,0,stairs
0.2815584,-7.9228922000000015,-2.6499022,1.7609980056321188,1.5167022647839292,1.9325897027120629,1.613692,-6.105214,0.636858,-2.54743,-9.792285,-4.151545,0,stairs
-0.9634266,-7.322426399999999,-1.2765882,2.380282991519244,2.435171304038547,1.3419093945155909,2.418144,-4.644751,0.885855,-3.20823,-9.433155,-2.456451,0,stairs
-2.6728868,-6.8445436,-2.2610838,4.2517681954620015,0.9737759242006347,0.9899923085288088,2.959233,-6.081272,-1.043872,-7.805097,-8.365341,-3.375824,0,stairs
1.2603078,-9.0998812,0.8628703999999997,3.5358434784494768,4.637449669997206,5.649711791351466,4.458004,-5.985504,9.792285,-4.582502,-17.3005,-5.401319,0,stairs
0.7536949999999999,-6.4020954,3.467762,3.271206414078452,3.520510452149986,4.292115868380827,5.64074,-0.483629,10.582372,-2.39899,-8.705316999999999,-0.3734949999999999,0,stairs
2.816539,-8.155608400000002,-1.2708422,1.8021820060095208,1.252620230297196,7.825153386165263,4.97994,-7.115567,5.93762,1.106121,-10.127473,-14.422671,0,stairs
3.0310594,-9.9196564,-0.3380614000000001,4.30758453439933,5.746803559395849,2.6635525491689287,8.288725999999999,-4.788403,4.074930999999999,-0.991199,-19.416977,-3.165135,0,stairs
1.6203960000000002,-12.670115,-2.0887014,5.159644581938372,5.792886361602695,4.450245101735724,6.952762,-3.715801,1.192313,-4.649539,-19.349937,-9.653421,0,stairs
2.720771,-10.6197208,-3.3298556000000006,3.221498473584071,5.967098392667428,4.369058806184096,6.789956,-4.606444000000001,-0.0430959999999999,-1.6519990000000002,-17.535133,-10.836157,0,stairs
2.2907724,-8.9351606,-6.4394448,1.3437878497303062,2.701599851495277,3.886667023377704,3.945645,-6.502651,-3.572149,0.7230489999999999,-11.96622,-12.555194,0,stairs
0.2547432,-7.146213,-2.0197486,1.926115152047172,2.690402064744505,2.4098500746015925,2.801216,-3.380613,0.205901,-1.608903,-10.146626,-5.133168,0,stairs
-0.2777274,-6.213432,-2.0647594,1.0345834980231416,2.188364779290349,1.641613655001322,1.455675,-4.13718,0.253785,-1.278504,-9.203311,-3.864241,0,stairs
-0.8054092,-8.0215334,-2.1519082,2.145531689493003,2.1609854791022545,1.7363247907090136,1.613692,-4.644751,0.636858,-3.102885,-9.792285,-4.151545,0,stairs
-0.6818686,-7.002560999999998,-1.6472106,3.7750398266073697,1.869482356679116,1.741557475584513,2.959233,-4.711789,0.885855,-5.861006,-9.251195,-3.375824,0,stairs
-2.5531766,-7.289865199999999,-1.0620678,2.9812864046212164,1.08908883694729,1.0066206869860164,-0.617704,-6.119579,0.550666,-7.805097,-8.403648,-2.130839,0,stairs
2.1815968,-8.8020432,-5.947197,2.073010101544298,3.533297270723722,4.686671739230837,3.945645,-3.380613,-0.057461,-1.35033,-11.96622,-12.555194,0,stairs
-0.2825156,-7.2726266,-1.667322,1.2144195685780512,2.409355413533109,1.555849389026136,1.685518,-4.13718,0.205901,-1.608903,-10.146626,-3.998317,0,stairs
0.5353436,-7.3339186,-2.0819976,1.2760329726563888,2.294748650689721,2.3320761122598035,1.613692,-4.1419690000000005,0.636858,-1.278504,-9.792285,-4.151545,0,stairs
-1.9565414,-7.025545399999999,-1.4585475999999995,1.4837158165729716,2.333211705023528,1.4655824538461832,0.282516,-4.644751,0.885855,-3.20823,-9.433155,-2.585738,0,stairs
-1.8262970000000005,-7.106948200000001,-2.3874976,4.845328934538552,1.2508206315158463,0.8217700971021641,2.959233,-6.081272,-1.61848,-7.805097,-8.571242,-3.375824,0,stairs
-0.4223371999999999,-10.601525,-1.7305292,1.7362351803533702,4.563397441045268,2.615810975115499,2.48997,-6.301539,0.550666,-1.814805,-15.964537,-6.253655,0,stairs
0.7067686,-7.4689516,-3.416047,2.5196072647083905,3.1906013566780485,3.5213367455445805,3.945645,-3.380613,0.205901,-1.608903,-11.760319,-8.09719,0,stairs
-0.2317588,-6.74686,-1.5150508000000005,1.131429970976198,2.8107008371469377,1.31636500986702,1.685518,-4.13718,0.253785,-1.278504,-10.146626,-3.284845,0,stairs
0.1063028,-8.5884804,-2.4334662,1.8769148739126928,1.2210082377297051,1.904091507742393,1.613692,-7.086836999999999,0.636858,-2.54743,-9.792285,-4.151545,0,stairs
-1.8942922,-6.715256799999999,-1.5112200000000002,3.250290271200743,2.137617434530136,1.618393925239155,2.418144,-4.644751,0.885855,-5.861006,-9.251195,-3.375824,0,stairs
-1.6242264000000002,-6.8253900000000005,-1.7994818,3.9010050079157534,0.9856415828646844,0.8712353519372364,2.959233,-6.081272,-1.043872,-7.805097,-8.365341,-3.136404,0,stairs
-0.9251196,-14.6400644,-0.4577714,2.0784965251732563,3.641917673119246,6.383966920948314,2.48997,-8.403648,9.706094,-2.633622,-17.927782,-6.253655,0,stairs
-0.4003103999999999,-6.108087,-1.2430696,1.2981545501038387,2.639102084290508,1.6667963468374891,1.685518,-3.380613,0.205901,-1.608903,-10.146626,-3.998317,0,stairs
0.1398213999999999,-7.2161238,-2.6451138,1.3180137569228176,2.1473920225102585,1.7878756059449996,1.613692,-4.1419690000000005,0.253785,-1.278504,-9.203311,-4.151545,0,stairs
-1.0716443999999998,-8.0416446,-1.508347,1.82964133362479,2.1745458638701547,1.3669152216313565,1.216255,-4.644751,0.636858,-3.102885,-9.792285,-2.585738,0,stairs
-2.2993912,-6.825390199999999,-1.8866306,4.840768305346343,1.6297027434718585,1.700759740993507,2.959233,-4.711789,0.885855,-7.805097,-8.571242,-3.375824,0,stairs
-0.4941631999999999,-8.809704400000001,-0.8034941999999999,1.7468008858893165,4.101468781153259,0.8103682487932261,2.48997,-6.119579,0.550666,-1.814805,-15.964537,-1.61848,0,stairs
-0.7182605999999999,-14.0922708,-2.3721748,2.0257211780690105,4.227895978058673,6.781206528064176,2.466028,-6.856992999999999,9.706094,-2.633622,-17.927782,-6.253655,0,stairs
-0.4874594,-6.8263474,-1.6577452,1.2923251519980563,2.793586135969553,1.5703421926096872,1.685518,-4.13718,0.253785,-1.608903,-10.146626,-3.998317,0,stairs
0.2815584,-7.9228922000000015,-2.6499022,1.7609980056321188,1.5167022647839292,1.9325897027120629,1.613692,-6.105214,0.636858,-2.54743,-9.792285,-4.151545,0,stairs
-0.9634266,-7.322426399999999,-1.2765882,2.380282991519244,2.435171304038547,1.3419093945155909,2.418144,-4.644751,0.885855,-3.20823,-9.433155,-2.456451,0,stairs
-2.6728868,-6.8445436,-2.2610838,4.2517681954620015,0.9737759242006347,0.9899923085288088,2.959233,-6.081272,-1.043872,-7.805097,-8.365341,-3.375824,0,stairs
-0.5861006,-12.7352376,-2.612553,1.928391301238107,5.075376088408946,3.0361450878150573,2.48997,-6.301539,0.550666,-2.633622,-17.927782,-6.253655,0,stairs
-1.3982138,-10.7576268,-1.450886,2.6132358453889504,4.379057829344711,6.290895172365973,2.466028,-6.397307,9.706094,-4.67827,-15.825673000000002,-5.3821650000000005,0,stairs
-0.2777274,-6.213432,-2.0647594,1.0345834980231416,2.188364779290349,1.641613655001322,1.455675,-4.13718,0.253785,-1.278504,-9.203311,-3.864241,0,stairs
-0.8054092,-8.0215334,-2.1519082,2.145531689493003,2.1609854791022545,1.7363247907090136,1.613692,-4.644751,0.636858,-3.102885,-9.792285,-4.151545,0,stairs
-0.6818686,-7.002560999999998,-1.6472106,3.7750398266073697,1.869482356679116,1.741557475584513,2.959233,-4.711789,0.885855,-5.861006,-9.251195,-3.375824,0,stairs
-2.5531766,-7.289865199999999,-1.0620678,2.9812864046212164,1.08908883694729,1.0066206869860164,-0.617704,-6.119579,0.550666,-7.805097,-8.403648,-2.130839,0,stairs
-0.7134722,-15.913779599999998,-1.6443376,2.0351363723300464,1.2315723632049804,6.693525681472717,2.48997,-14.772224,9.706094,-2.633622,-17.927782,-6.253655,0,stairs
-1.2660538,-7.1979278,-3.5347992,2.7488867447760925,2.2011333042466323,0.718909836101649,2.466028,-4.180276,-2.652775,-4.67827,-9.935937,-4.477157,0,stairs
0.5353436,-7.3339186,-2.0819976,1.2760329726563888,2.294748650689721,2.3320761122598035,1.613692,-4.1419690000000005,0.636858,-1.278504,-9.792285,-4.151545,0,stairs
-1.9565414,-7.025545399999999,-1.4585475999999995,1.4837158165729716,2.333211705023528,1.4655824538461832,0.282516,-4.644751,0.885855,-3.20823,-9.433155,-2.585738,0,stairs
-1.8262970000000005,-7.106948200000001,-2.3874976,4.845328934538552,1.2508206315158463,0.8217700971021641,2.959233,-6.081272,-1.61848,-7.805097,-8.571242,-3.375824,0,stairs
-0.4223371999999999,-10.601525,-1.7305292,1.7362351803533702,4.563397441045268,2.615810975115499,2.48997,-6.301539,0.550666,-1.814805,-15.964537,-6.253655,0,stairs
-1.5571888,-12.3559958,-1.9201494,2.6702904805331014,5.354125139900048,6.528405447541789,2.466028,-6.397307,9.706094,-4.67827,-17.927782,-5.453991,0,stairs
-1.0352528,-8.8413078,-4.3593624,1.9303391823742275,3.306070394730154,2.45962193427553,1.642422,-4.180276,-2.652775,-2.700659,-13.340492,-8.681376,0,stairs
0.1063028,-8.5884804,-2.4334662,1.8769148739126928,1.2210082377297051,1.904091507742393,1.613692,-7.086836999999999,0.636858,-2.54743,-9.792285,-4.151545,0,stairs
-1.8942922,-6.715256799999999,-1.5112200000000002,3.250290271200743,2.137617434530136,1.618393925239155,2.418144,-4.644751,0.885855,-5.861006,-9.251195,-3.375824,0,stairs
-1.6242264000000002,-6.8253900000000005,-1.7994818,3.9010050079157534,0.9856415828646844,0.8712353519372364,2.959233,-6.081272,-1.043872,-7.805097,-8.365341,-3.136404,0,stairs
-0.9251196,-14.6400644,-0.4577714,2.0784965251732563,3.641917673119246,6.383966920948314,2.48997,-8.403648,9.706094,-2.633622,-17.927782,-6.253655,0,stairs
-0.8705318,-9.3163174,-4.0806772,2.6485312307918325,3.361763649656427,0.8961312912987137,2.466028,-6.397307,-3.1076740000000003,-4.67827,-14.772224,-5.3821650000000005,0,stairs
-0.3351880000000001,-7.0226722,-3.3279402,2.5343885962772164,4.70154497772713,3.4656549961617213,2.930503,-0.943315,0.842759,-2.700659,-13.340492,-8.681376,0,stairs
-1.0716443999999998,-8.0416446,-1.508347,1.82964133362479,2.1745458638701547,1.3669152216313565,1.216255,-4.644751,0.636858,-3.102885,-9.792285,-2.585738,0,stairs
-2.2993912,-6.825390199999999,-1.8866306,4.840768305346343,1.6297027434718585,1.700759740993507,2.959233,-4.711789,0.885855,-7.805097,-8.571242,-3.375824,0,stairs
-0.4941631999999999,-8.809704400000001,-0.8034941999999999,1.7468008858893165,4.101468781153259,0.8103682487932261,2.48997,-6.119579,0.550666,-1.814805,-15.964537,-1.61848,0,stairs
-0.7182605999999999,-14.0922708,-2.3721748,2.0257211780690105,4.227895978058673,6.781206528064176,2.466028,-6.856992999999999,9.706094,-2.633622,-17.927782,-6.253655,0,stairs
-2.2993912,-8.4946276,-3.4217928,1.8039013241586137,3.485242382135179,0.5607605803047321,0.325611,-4.180276,-2.652775,-4.67827,-13.340492,-3.993528,0,stairs
0.2662351999999999,-5.9730542,-2.798343,2.052199849732769,3.178447986827486,3.614484605750037,2.930503,-0.943315,0.842759,-2.240973,-8.51857,-8.681376,0,stairs
-0.9634266,-7.322426399999999,-1.2765882,2.380282991519244,2.435171304038547,1.3419093945155909,2.418144,-4.644751,0.885855,-3.20823,-9.433155,-2.456451,0,stairs
-2.6728868,-6.8445436,-2.2610838,4.2517681954620015,0.9737759242006347,0.9899923085288088,2.959233,-6.081272,-1.043872,-7.805097,-8.365341,-3.375824,0,stairs
-0.5861006,-12.7352376,-2.612553,1.928391301238107,5.075376088408946,3.0361450878150573,2.48997,-6.301539,0.550666,-2.633622,-17.927782,-6.253655,0,stairs
-1.3982138,-10.7576268,-1.450886,2.6132358453889504,4.379057829344711,6.290895172365973,2.466028,-6.397307,9.706094,-4.67827,-15.825673000000002,-5.3821650000000005,0,stairs
-0.0814028,-8.557834399999999,-4.1850644,2.521770432619552,3.2490216442478186,2.597509573696948,2.930503,-4.180276,-2.236184,-2.700659,-13.340492,-8.681376,0,stairs
1.0917560000000002,-6.6328966000000005,-1.3656526,4.114206841677871,3.9720227952980456,1.941540886785236,8.2169,-0.943315,0.842759,-2.240973,-11.386824,-3.653552,0,stairs
0.6282388,-7.0542756,0.8925583999999998,3.533203308452643,1.2354561899591177,5.655919924861719,4.458004,-5.803545,9.792285,-4.582502,-8.705316999999999,-5.401319,0,stairs
2.3769638,-7.004476599999999,-0.0689528000000002,3.707530651171774,3.773575307775016,9.219717842595818,5.64074,-0.483629,10.582372,-2.39899,-10.127473,-14.422671,0,stairs
2.3817517999999995,-10.691547,2.1136012,3.5001451518928035,5.083701605231615,3.418813748129488,8.288725999999999,-7.115567,5.93762,-0.991199,-19.416977,-3.165135,0,stairs
4.341166599999999,-8.9255836,-0.9519346,3.610045962983616,3.690696031524379,1.0229850121904525,7.062895,-4.788403,0.344765,0.02873,-13.982138,-2.504335,0,stairs
1.0572798,-12.3215192,-4.425442200000001,4.53440723765827,6.663161873372896,5.549412011850553,6.789956,-3.715801,1.192313,-4.649539,-19.349937,-10.836157,0,stairs
-1.016099,-10.752838399999998,-0.308373,3.570138145213922,6.465509089203904,1.4873622857157232,3.2896330000000003,-4.606444000000001,1.896208,-6.320692,-17.956512,-2.2505490000000004,0,stairs
-0.6818686,-7.002560999999998,-1.6472106,3.7750398266073697,1.869482356679116,1.741557475584513,2.959233,-4.711789,0.885855,-5.861006,-9.251195,-3.375824,0,stairs
-2.5531766,-7.289865199999999,-1.0620678,2.9812864046212164,1.08908883694729,1.0066206869860164,-0.617704,-6.119579,0.550666,-7.805097,-8.403648,-2.130839,0,stairs
-0.7134722,-15.913779599999998,-1.6443376,2.0351363723300464,1.2315723632049804,6.693525681472717,2.48997,-14.772224,9.706094,-2.633622,-17.927782,-6.253655,0,stairs
-1.2660538,-7.1979278,-3.5347992,2.7488867447760925,2.2011333042466323,0.718909836101649,2.466028,-4.180276,-2.652775,-4.67827,-9.935937,-4.477157,0,stairs
0.174298,-7.694006399999999,-3.4198776000000004,2.1977376370429207,4.425774369589383,3.4493252452281595,2.930503,-0.943315,0.842759,-2.700659,-13.340492,-8.681376,0,stairs
1.7985244000000002,-8.9016424,-0.9471462,3.9899247701395706,2.555805771591867,1.6335174657083404,8.2169,-4.735731,0.665588,-2.240973,-11.386824,-3.653552,0,stairs
-1.8262970000000005,-7.106948200000001,-2.3874976,4.845328934538552,1.2508206315158463,0.8217700971021641,2.959233,-6.081272,-1.61848,-7.805097,-8.571242,-3.375824,0,stairs
-0.4223371999999999,-10.601525,-1.7305292,1.7362351803533702,4.563397441045268,2.615810975115499,2.48997,-6.301539,0.550666,-1.814805,-15.964537,-6.253655,0,stairs
-1.5571888,-12.3559958,-1.9201494,2.6702904805331014,5.354125139900048,6.528405447541789,2.466028,-6.397307,9.706094,-4.67827,-17.927782,-5.453991,0,stairs
-1.0352528,-8.8413078,-4.3593624,1.9303391823742275,3.306070394730154,2.45962193427553,1.642422,-4.180276,-2.652775,-2.700659,-13.340492,-8.681376,0,stairs
0.0344765999999999,-6.059245800000001,-1.7927782,1.9190431603658111,3.2564713491278714,1.8250683672408547,2.930503,-0.943315,0.842759,-2.240973,-8.561666,-3.653552,0,stairs
2.7811048,-12.18936,-2.1356278,3.200658645836307,2.6838744615191104,3.877134284010898,8.2169,-9.442732,0.665588,-0.124498,-16.093823999999998,-8.920795,0,stairs
-1.6242264000000002,-6.8253900000000005,-1.7994818,3.9010050079157534,0.9856415828646844,0.8712353519372364,2.959233,-6.081272,-1.043872,-7.805097,-8.365341,-3.136404,0,stairs
-0.9251196,-14.6400644,-0.4577714,2.0784965251732563,3.641917673119246,6.383966920948314,2.48997,-8.403648,9.706094,-2.633622,-17.927782,-6.253655,0,stairs
-0.8705318,-9.3163174,-4.0806772,2.6485312307918325,3.361763649656427,0.8961312912987137,2.466028,-6.397307,-3.1076740000000003,-4.67827,-14.772224,-5.3821650000000005,0,stairs
-0.3351880000000001,-7.0226722,-3.3279402,2.5343885962772164,4.70154497772713,3.4656549961617213,2.930503,-0.943315,0.842759,-2.700659,-13.340492,-8.681376,0,stairs
1.2555194000000005,-8.332780000000001,-1.7027562,4.028351378231957,2.458845189795709,1.5737269296543157,8.2169,-4.735731,-0.1005559999999999,-2.240973,-11.386824,-3.653552,0,stairs
1.8933348,-10.0221284,-3.0224402,0.7338032952029446,5.019664098124424,3.67068871836018,2.657564,-4.697424,0.665588,1.024718,-16.093823999999998,-8.920795,0,stairs
-0.4941631999999999,-8.809704400000001,-0.8034941999999999,1.7468008858893165,4.101468781153259,0.8103682487932261,2.48997,-6.119579,0.550666,-1.814805,-15.964537,-1.61848,0,stairs
-0.7182605999999999,-14.0922708,-2.3721748,2.0257211780690105,4.227895978058673,6.781206528064176,2.466028,-6.856992999999999,9.706094,-2.633622,-17.927782,-6.253655,0,stairs
-2.2993912,-8.4946276,-3.4217928,1.8039013241586137,3.485242382135179,0.5607605803047321,0.325611,-4.180276,-2.652775,-4.67827,-13.340492,-3.993528,0,stairs
0.2662351999999999,-5.9730542,-2.798343,2.052199849732769,3.178447986827486,3.614484605750037,2.930503,-0.943315,0.842759,-2.240973,-8.51857,-8.681376,0,stairs
2.5234888,-11.173261,-1.0821792,3.350542800126377,2.9453342604791044,1.6466261875263917,8.2169,-8.561666,0.665588,-0.124498,-16.093823999999998,-3.653552,0,stairs
1.52367,-7.1126942,-3.9006332,1.1635445733333554,3.822256738301496,4.177371366398635,2.628834,-4.544194,1.604115,-0.229843,-13.642160999999998,-8.920795,0,stairs
-0.5861006,-12.7352376,-2.612553,1.928391301238107,5.075376088408946,3.0361450878150573,2.48997,-6.301539,0.550666,-2.633622,-17.927782,-6.253655,0,stairs
-1.3982138,-10.7576268,-1.450886,2.6132358453889504,4.379057829344711,6.290895172365973,2.466028,-6.397307,9.706094,-4.67827,-15.825673000000002,-5.3821650000000005,0,stairs
-0.0814028,-8.557834399999999,-4.1850644,2.521770432619552,3.2490216442478186,2.597509573696948,2.930503,-4.180276,-2.236184,-2.700659,-13.340492,-8.681376,0,stairs
1.0917560000000002,-6.6328966000000005,-1.3656526,4.114206841677871,3.9720227952980456,1.941540886785236,8.2169,-0.943315,0.842759,-2.240973,-11.386824,-3.653552,0,stairs
1.3426684,-10.971189999999998,-2.4123976000000003,1.020831991479646,4.131214841604645,3.7426009444681374,2.657564,-5.295974,0.665588,-0.124498,-16.093823999999998,-8.920795,0,stairs
1.7812864000000002,-7.054275799999999,-3.4945766,1.3188683374637136,3.700324388268305,3.08922399746446,2.949657,-4.544194,1.604115,-0.229843,-13.354857,-6.809108999999999,0,stairs
-0.7134722,-15.913779599999998,-1.6443376,2.0351363723300464,1.2315723632049804,6.693525681472717,2.48997,-14.772224,9.706094,-2.633622,-17.927782,-6.253655,0,stairs
-1.2660538,-7.1979278,-3.5347992,2.7488867447760925,2.2011333042466323,0.718909836101649,2.466028,-4.180276,-2.652775,-4.67827,-9.935937,-4.477157,0,stairs
0.174298,-7.694006399999999,-3.4198776000000004,2.1977376370429207,4.425774369589383,3.4493252452281595,2.930503,-0.943315,0.842759,-2.700659,-13.340492,-8.681376,0,stairs
1.7985244000000002,-8.9016424,-0.9471462,3.9899247701395706,2.555805771591867,1.6335174657083404,8.2169,-4.735731,0.665588,-2.240973,-11.386824,-3.653552,0,stairs
1.8464084,-8.854715399999998,-2.8347348,0.6781013186156623,5.564454950217478,3.9218336622392846,2.628834,-4.544194,1.604115,1.024718,-16.093823999999998,-8.920795,0,stairs
1.161667,-8.010999,-5.0469768,1.5637624142798994,3.1469227621862603,1.4417745468790188,2.949657,-5.291186,-3.672705,-0.536301,-13.354857,-6.809108999999999,0,stairs
-1.5571888,-12.3559958,-1.9201494,2.6702904805331014,5.354125139900048,6.528405447541789,2.466028,-6.397307,9.706094,-4.67827,-17.927782,-5.453991,0,stairs
-1.0352528,-8.8413078,-4.3593624,1.9303391823742275,3.306070394730154,2.45962193427553,1.642422,-4.180276,-2.652775,-2.700659,-13.340492,-8.681376,0,stairs
0.0344765999999999,-6.059245800000001,-1.7927782,1.9190431603658111,3.2564713491278714,1.8250683672408547,2.930503,-0.943315,0.842759,-2.240973,-8.561666,-3.653552,0,stairs
2.7811048,-12.18936,-2.1356278,3.200658645836307,2.6838744615191104,3.877134284010898,8.2169,-9.442732,0.665588,-0.124498,-16.093823999999998,-8.920795,0,stairs
1.7592596,-7.0552334000000005,-2.9161376,1.333205458382278,3.699754630569547,3.152898897274348,2.949657,-4.544194,1.604115,-0.229843,-13.354857,-6.809108999999999,0,stairs
1.674026,-10.2615488,-3.840299200000001,1.3888375162060895,5.321934062941893,1.6572198638171702,2.686294,-5.291186,-2.336741,-0.536301,-16.46732,-6.378153,0,stairs
-0.8705318,-9.3163174,-4.0806772,2.6485312307918325,3.361763649656427,0.8961312912987137,2.466028,-6.397307,-3.1076740000000003,-4.67827,-14.772224,-5.3821650000000005,0,stairs
-0.3351880000000001,-7.0226722,-3.3279402,2.5343885962772164,4.70154497772713,3.4656549961617213,2.930503,-0.943315,0.842759,-2.700659,-13.340492,-8.681376,0,stairs
1.2555194000000005,-8.332780000000001,-1.7027562,4.028351378231957,2.458845189795709,1.5737269296543157,8.2169,-4.735731,-0.1005559999999999,-2.240973,-11.386824,-3.653552,0,stairs
1.8933348,-10.0221284,-3.0224402,0.7338032952029446,5.019664098124424,3.67068871836018,2.657564,-4.697424,0.665588,1.024718,-16.093823999999998,-8.920795,0,stairs
1.1482594000000002,-7.3578606,-3.9916128,1.5497510505711232,3.516313165310621,3.357614058575851,2.949657,-4.544194,1.604115,-0.536301,-13.354857,-6.809108999999999,0,stairs
0.2097322,-12.9440124,-4.7692496,3.824058599618565,3.471307572457503,4.214042384664255,2.686294,-7.809886,-2.336741,-6.186617,-16.46732,-12.243947,0,stairs
-2.2993912,-8.4946276,-3.4217928,1.8039013241586137,3.485242382135179,0.5607605803047321,0.325611,-4.180276,-2.652775,-4.67827,-13.340492,-3.993528,0,stairs
0.2662351999999999,-5.9730542,-2.798343,2.052199849732769,3.178447986827486,3.614484605750037,2.930503,-0.943315,0.842759,-2.240973,-8.51857,-8.681376,0,stairs
2.5234888,-11.173261,-1.0821792,3.350542800126377,2.9453342604791044,1.6466261875263917,8.2169,-8.561666,0.665588,-0.124498,-16.093823999999998,-3.653552,0,stairs
1.52367,-7.1126942,-3.9006332,1.1635445733333554,3.822256738301496,4.177371366398635,2.628834,-4.544194,1.604115,-0.229843,-13.642160999999998,-8.920795,0,stairs
1.7448944000000002,-9.8277194,-4.1525032,1.4550625383238,4.853504142057139,1.4624216621714137,2.949657,-5.291186,-2.336741,-0.536301,-16.46732,-6.378153,0,stairs
-1.8081008,-11.306378,-4.750096,3.754764170857898,3.320167581587412,4.20563031013432,2.5953150000000003,-7.862558,-2.437297,-6.186617,-15.524004,-12.243947,0,stairs
-0.0814028,-8.557834399999999,-4.1850644,2.521770432619552,3.2490216442478186,2.597509573696948,2.930503,-4.180276,-2.236184,-2.700659,-13.340492,-8.681376,0,stairs
1.0917560000000002,-6.6328966000000005,-1.3656526,4.114206841677871,3.9720227952980456,1.941540886785236,8.2169,-0.943315,0.842759,-2.240973,-11.386824,-3.653552,0,stairs
1.3426684,-10.971189999999998,-2.4123976000000003,1.020831991479646,4.131214841604645,3.7426009444681374,2.657564,-5.295974,0.665588,-0.124498,-16.093823999999998,-8.920795,0,stairs
1.7812864000000002,-7.054275799999999,-3.4945766,1.3188683374637136,3.700324388268305,3.08922399746446,2.949657,-4.544194,1.604115,-0.229843,-13.354857,-6.809108999999999,0,stairs
0.2097322,-11.9097172,-3.5960908,3.824058599618565,4.628746081322155,1.6483760158004606,2.686294,-6.2153480000000005,-2.336741,-6.186617,-16.46732,-6.378153,0,stairs
-1.0113105999999998,-9.1688346,-6.042965000000001,2.452002323888642,1.381031245065006,3.805732368785803,1.01993,-7.862558,-2.590526,-5.228936,-11.386824,-12.243947,0,stairs
1.8109746,-7.6882604,0.2710238,3.479686207645425,1.2785871250846772,3.5579587281962253,5.64074,-5.803545,4.055778,-2.39899,-8.705316999999999,-5.401319,0,stairs
2.2208616,-6.7573948,-0.3418918000000001,2.4524750310226,3.704620459259248,9.07130251703148,4.97994,-0.483629,10.582372,-0.8283940000000001,-10.127473,-14.422671,0,stairs
3.455312,-10.1054464,0.9787494,4.033716738817192,5.624166089494495,3.840481046940252,8.288725999999999,-4.788403,5.93762,-0.991199,-19.416977,-3.165135,0,stairs
2.5560498,-10.9683164,-2.4564508,4.0414045959221525,6.155708412273912,4.179043177456557,6.952762,-3.715801,0.344765,-1.417367,-19.349937,-9.653421,0,stairs
2.121263,-10.1236422,-2.6412832,4.32768738687587,5.316038290697943,4.828797618646716,6.789956,-4.606444000000001,1.192313,-4.649539,-16.539145,-10.836157,0,stairs
1.883758,-14.1918702,-2.2208612000000003,7.371428810791466,5.540036213516632,3.449010787825793,12.133814,-6.196194,1.896208,-6.320692,-18.703505,-7.508216,0,stairs
0.174298,-7.694006399999999,-3.4198776000000004,2.1977376370429207,4.425774369589383,3.4493252452281595,2.930503,-0.943315,0.842759,-2.700659,-13.340492,-8.681376,0,stairs
1.7985244000000002,-8.9016424,-0.9471462,3.9899247701395706,2.555805771591867,1.6335174657083404,8.2169,-4.735731,0.665588,-2.240973,-11.386824,-3.653552,0,stairs
1.8464084,-8.854715399999998,-2.8347348,0.6781013186156623,5.564454950217478,3.9218336622392846,2.628834,-4.544194,1.604115,1.024718,-16.093823999999998,-8.920795,0,stairs
1.161667,-8.010999,-5.0469768,1.5637624142798994,3.1469227621862603,1.4417745468790188,2.949657,-5.291186,-3.672705,-0.536301,-13.354857,-6.809108999999999,0,stairs
-1.3340489999999998,-12.954546800000005,-4.699339,4.211799558711276,3.451857293928473,4.239603862035992,2.686294,-7.862558,-2.336741,-6.186617,-16.46732,-12.243947,0,stairs
0.2173935999999999,-8.7283014,-3.2944216000000006,1.0725414275088865,1.9951484434746447,2.6138762058208305,1.4604629999999998,-5.779603,-0.483629,-1.082179,-11.267113,-6.315904,0,stairs
0.0344765999999999,-6.059245800000001,-1.7927782,1.9190431603658111,3.2564713491278714,1.8250683672408547,2.930503,-0.943315,0.842759,-2.240973,-8.561666,-3.653552,0,stairs
2.7811048,-12.18936,-2.1356278,3.200658645836307,2.6838744615191104,3.877134284010898,8.2169,-9.442732,0.665588,-0.124498,-16.093823999999998,-8.920795,0,stairs
1.7592596,-7.0552334000000005,-2.9161376,1.333205458382278,3.699754630569547,3.152898897274348,2.949657,-4.544194,1.604115,-0.229843,-13.354857,-6.809108999999999,0,stairs
1.674026,-10.2615488,-3.840299200000001,1.3888375162060895,5.321934062941893,1.6572198638171702,2.686294,-5.291186,-2.336741,-0.536301,-16.46732,-6.378153,0,stairs
-2.1231778,-10.0862928,-5.4108958000000005,3.33557850430202,2.366832184963945,4.006228325035932,1.01993,-7.862558,-2.590526,-6.186617,-13.532028,-12.243947,0,stairs
-0.4616019999999999,-9.0673204,0.1254561999999999,2.2638050246474406,2.725732267183775,5.204744941352044,1.776498,-5.779603,8.130709,-3.835511,-12.253524,-6.315904,0,stairs
1.2555194000000005,-8.332780000000001,-1.7027562,4.028351378231957,2.458845189795709,1.5737269296543157,8.2169,-4.735731,-0.1005559999999999,-2.240973,-11.386824,-3.653552,0,stairs
1.8933348,-10.0221284,-3.0224402,0.7338032952029446,5.019664098124424,3.67068871836018,2.657564,-4.697424,0.665588,1.024718,-16.093823999999998,-8.920795,0,stairs
1.1482594000000002,-7.3578606,-3.9916128,1.5497510505711232,3.516313165310621,3.357614058575851,2.949657,-4.544194,1.604115,-0.536301,-13.354857,-6.809108999999999,0,stairs
0.2097322,-12.9440124,-4.7692496,3.824058599618565,3.471307572457503,4.214042384664255,2.686294,-7.809886,-2.336741,-6.186617,-16.46732,-12.243947,0,stairs
-1.1204862,-8.0473904,-3.6909014,2.437675800699859,1.40607766417268,2.3836641204059767,1.01993,-5.779603,-0.483629,-5.228936,-9.423578,-6.315904,0,stairs
4.886086799999999,-8.7225556,3.7445318,7.404360779500159,4.543366722014667,3.944928224103792,14.164097,-1.446098,8.130709,-3.835511,-12.253524,-1.340753,0,stairs
2.5234888,-11.173261,-1.0821792,3.350542800126377,2.9453342604791044,1.6466261875263917,8.2169,-8.561666,0.665588,-0.124498,-16.093823999999998,-3.653552,0,stairs
1.52367,-7.1126942,-3.9006332,1.1635445733333554,3.822256738301496,4.177371366398635,2.628834,-4.544194,1.604115,-0.229843,-13.642160999999998,-8.920795,0,stairs
1.7448944000000002,-9.8277194,-4.1525032,1.4550625383238,4.853504142057139,1.4624216621714137,2.949657,-5.291186,-2.336741,-0.536301,-16.46732,-6.378153,0,stairs
-1.8081008,-11.306378,-4.750096,3.754764170857898,3.320167581587412,4.20563031013432,2.5953150000000003,-7.862558,-2.437297,-6.186617,-15.524004,-12.243947,0,stairs
-0.6129156,-9.533711,-1.1501746000000002,2.095866120949475,2.492709959792856,5.796088325408292,1.4604629999999998,-5.779603,8.130709,-3.835511,-12.253524,-6.315904,0,stairs
8.5482576,-5.176264199999999,7.7620022,4.632482931298377,4.1450001241375976,5.686638425056072,14.164097,-1.446098,15.011644,1.776498,-11.554418,0.636858,0,stairs
1.3426684,-10.971189999999998,-2.4123976000000003,1.020831991479646,4.131214841604645,3.7426009444681374,2.657564,-5.295974,0.665588,-0.124498,-16.093823999999998,-8.920795,0,stairs
1.7812864000000002,-7.054275799999999,-3.4945766,1.3188683374637136,3.700324388268305,3.08922399746446,2.949657,-4.544194,1.604115,-0.229843,-13.354857,-6.809108999999999,0,stairs
0.2097322,-11.9097172,-3.5960908,3.824058599618565,4.628746081322155,1.6483760158004606,2.686294,-6.2153480000000005,-2.336741,-6.186617,-16.46732,-6.378153,0,stairs
-1.0113105999999998,-9.1688346,-6.042965000000001,2.452002323888642,1.381031245065006,3.805732368785803,1.01993,-7.862558,-2.590526,-5.228936,-11.386824,-12.243947,0,stairs
2.4966736000000003,-9.5892566,2.588611,6.903366965442646,2.9379842735745374,4.2142448327603725,14.164097,-5.779603,8.130709,-3.835511,-12.253524,-1.340753,0,stairs
7.143339999999999,-1.4604630000000005,9.516473,2.928167025068072,1.4374825963212563,4.24881736537404,10.864887,0.0909799999999999,15.011644,3.394978,-3.0502130000000003,5.243302,0,stairs
1.8464084,-8.854715399999998,-2.8347348,0.6781013186156623,5.564454950217478,3.9218336622392846,2.628834,-4.544194,1.604115,1.024718,-16.093823999999998,-8.920795,0,stairs
1.161667,-8.010999,-5.0469768,1.5637624142798994,3.1469227621862603,1.4417745468790188,2.949657,-5.291186,-3.672705,-0.536301,-13.354857,-6.809108999999999,0,stairs
-1.3340489999999998,-12.954546800000005,-4.699339,4.211799558711276,3.451857293928473,4.239603862035992,2.686294,-7.862558,-2.336741,-6.186617,-16.46732,-12.243947,0,stairs
0.2173935999999999,-8.7283014,-3.2944216000000006,1.0725414275088865,1.9951484434746447,2.6138762058208305,1.4604629999999998,-5.779603,-0.483629,-1.082179,-11.267113,-6.315904,0,stairs
6.4068836000000005,-7.079175599999999,7.015011200000001,7.305099506840532,4.867389797692424,5.240642925120896,14.164097,-1.446098,15.011644,-3.835511,-12.253524,0.636858,0,stairs
3.1287428000000004,0.0153229999999999,9.0089022,3.657604747722777,1.733499404682188,2.4491093634579086,6.871359,1.848324,11.865664,-2.643199,-2.738967,5.243302,0,stairs
-2.018791,-6.0659494,-0.8695738000000001,1.561601600229553,3.2774398257237003,2.16579486448814,0.229843,-2.48997,1.11091,-4.10845,-9.32781,-4.539406,0,stairs
-4.380431400000001,-10.329544,-2.2601262,2.7434173881938384,6.686307880777888,1.8496600979252105,-1.297657,-1.517924,-0.1005559999999999,-8.825027,-17.922995,-4.654328,0,stairs
-3.3413478,-8.2906416,-1.8626888,3.123150083885531,6.351093859405189,1.3348528900746703,1.024718,-1.072602,-0.071826,-6.842628,-15.35641,-3.1795,0,stairs
-4.9157748,-10.9577824,-0.962469,2.312235314127587,2.9503624645117426,1.6008495576126132,-2.911349,-8.556877,0.732626,-8.614338,-15.021221,-2.906561,0,stairs
-4.262637,-12.128067800000002,-3.262818,3.583891212316091,4.409044730334588,3.7033809165802807,0.349553,-6.5792660000000005,1.273715,-9.332599,-18.492813,-6.995857000000001,0,stairs
-4.2808322,-9.6112832,-2.0954052,4.17409410757097,4.340061512709952,3.626447630789558,-0.158017,-2.930503,1.685518,-10.036493,-13.340492,-7.479486,0,stairs
-4.2693404,-10.0039328,-1.4949393999999998,2.76397183803676,5.700655797112706,2.46451281343429,-1.695095,-2.48997,1.11091,-8.825027,-17.922995,-4.654328,0,stairs
-2.7131094,-8.0991054,-1.477701,2.621117413028516,6.315134234856199,1.1988265748428752,1.024718,-1.517924,-0.1005559999999999,-5.736507,-15.35641,-3.1795,0,stairs
-3.9782054,-7.8922466,-1.9699492,1.9413015646073128,4.766594974739022,1.1986828451152958,-1.94888,-1.072602,-0.071826,-6.842628,-14.389153,-3.08852,0,stairs
-3.850834,-10.980766600000004,-1.4403516,3.2937765292628005,3.273925722222069,3.225259597511463,0.349553,-6.5792660000000005,0.732626,-8.614338,-15.021221,-6.995857000000001,0,stairs
-7.195054999999999,-13.491805,-1.6261416,2.6104102413820898,3.0292138902787147,3.505821686576529,-3.653552,-10.951078,1.685518,-10.036493,-18.492813,-6.440402,0,stairs
-2.7887658,-10.055647,-3.1948228,2.806687853463348,4.7362937515490415,2.7774336414346963,-0.158017,-2.930503,-0.11971,-7.517792999999999,-14.398729,-7.479486,0,stairs
-4.94259,-11.891521199999998,-1.7879896,2.184932509613169,4.74306895432606,2.160046784132765,-3.557784,-5.492298,0.21069,-8.825027,-17.922995,-4.654328,0,stairs
-2.2323536,-7.232404600000001,-1.9057844,2.489208416084378,7.060825198720388,1.3412147012314248,1.024718,-1.072602,-0.071826,-5.736507,-15.35641,-3.1795,0,stairs
-4.5614328,-9.31536,-1.0620678,1.6425080545259745,2.346846592333424,1.652379023335657,-2.911349,-6.809108999999999,0.732626,-6.842628,-13.148955,-2.906561,0,stairs
-4.8343724,-12.3540804,-3.8048652,4.0758704278235225,4.548767460667373,3.006088575297841,0.349553,-6.5792660000000005,-0.148441,-9.332599,-18.492813,-6.995857000000001,0,stairs
-5.1504064,-9.7214164,-1.0572794,3.867563785357496,4.463580937918322,3.7164849120465697,-0.158017,-2.930503,1.685518,-10.036493,-13.891158,-7.479486,0,stairs
-3.4735076,-9.713755,-0.9184158000000004,2.4900448372574133,6.398737176973477,2.7400181486941286,-1.40779,1.393425,2.652776,-7.517792999999999,-14.398729,-3.916914,0,stairs
-4.6830584,-9.816227,-1.5370772,2.8045371157964376,6.023252117550783,1.3066861584333094,-1.297657,-1.517924,-0.1005559999999999,-8.825027,-15.35641,-3.476381,0,stairs
-3.190992,-6.946057999999999,-2.2361844,2.9944591473810425,5.0620774112831874,1.3077821676989252,1.024718,-1.072602,-0.071826,-6.842628,-14.389153,-3.1795,0,stairs
-3.8489186,-10.546937200000002,-1.7803282000000002,3.294455195167526,3.45483956927528,3.143592130166969,0.349553,-6.5792660000000005,0.732626,-8.614338,-15.021221,-6.995857000000001,0,stairs
-5.7719416,-13.0838332,-1.5265430000000002,2.613671582647158,3.2785257362925653,3.5474397622938576,-2.920926,-10.726024,1.685518,-9.332599,-18.492813,-6.440402,0,stairs
-3.2925058,-10.2194104,-2.992752,3.88609920731557,4.831245571539683,2.9487760986205784,-0.158017,-2.930503,-0.11971,-10.036493,-14.398729,-7.479486,0,stairs
-3.1976956000000003,-8.9016416,-0.0794874,3.0570485515942987,5.797721057501542,1.8872131403135943,0.8379709999999999,1.393425,2.652776,-7.517792999999999,-11.985373,-1.656788,0,stairs
1.1568786,-6.139691,3.224511000000001,3.639943840465509,3.350721636357831,4.588473372362424,5.64074,-0.483629,10.582372,-2.39899,-8.566454,-1.58975,0,stairs
3.5759796,-8.8336462,-1.5859192,3.0515139262835254,1.6048490523652683,7.872775519402937,8.288725999999999,-7.115567,5.93762,1.106121,-10.783484,-14.422671,0,stairs
2.7638666,-10.0125514,0.3639185999999999,3.924311128345241,5.76797292969244,2.14406599009086,7.062895,-4.788403,4.074930999999999,-0.991199,-19.416977,-0.981623,0,stairs
1.0783488,-13.7283522,-4.3248858,4.567824744654418,5.949320658466285,5.585972235477831,6.895301,-3.715801,1.192313,-4.649539,-19.349937,-10.836157,0,stairs
0.6081274000000002,-8.551130599999999,-0.7833826000000002,4.965586814729384,5.137064636642924,1.9299777040510857,6.789956,-4.606444000000001,1.896208,-6.320692,-17.535133,-3.007117,0,stairs
5.1293378,-12.3607848,-3.949475000000001,5.587414614987615,5.700320020428125,2.9703762737801416,12.133814,-5.918466,-0.632069,-1.331176,-18.703505,-7.508216,0,stairs
-2.3913286,-9.8784764,-2.0752938,2.590071570016029,6.641952458207925,1.0795096517487466,1.024718,-1.517924,-0.919373,-5.736507,-15.35641,-3.1795,0,stairs
-4.1888952,-7.644207,-1.2229582,1.70930024197468,4.358821022629227,1.4621602280262245,-2.911349,-1.072602,0.646435,-6.842628,-13.148955,-2.906561,0,stairs
-3.981078600000001,-10.5411912,-2.3702596,3.264582533504216,3.0499207511080844,3.142394792125553,0.349553,-6.5792660000000005,0.732626,-8.614338,-15.021221,-6.995857000000001,0,stairs
-6.495948,-11.88769,-2.3214178,3.930358566353711,5.677244682783631,4.3404430499927305,-0.158017,-2.930503,1.685518,-10.036493,-18.492813,-7.479486,0,stairs
-3.1565152000000003,-9.1908614,-1.1683704,2.476904132360334,6.447949596082099,2.5573461278878145,-1.40779,1.393425,2.652776,-7.517792999999999,-14.398729,-3.916914,0,stairs
-2.0858284,-9.0213518,-0.9107542,1.8770255927626027,3.3532070787201915,1.1797189649468214,0.8379709999999999,-4.209007,1.1300629999999998,-4.189853,-11.985373,-1.915361,0,stairs
-3.3413478,-8.2906416,-1.8626888,3.123150083885531,6.351093859405189,1.3348528900746703,1.024718,-1.072602,-0.071826,-6.842628,-15.35641,-3.1795,0,stairs
-4.9157748,-10.9577824,-0.962469,2.312235314127587,2.9503624645117426,1.6008495576126132,-2.911349,-8.556877,0.732626,-8.614338,-15.021221,-2.906561,0,stairs
-4.262637,-12.128067800000002,-3.262818,3.583891212316091,4.409044730334588,3.7033809165802807,0.349553,-6.5792660000000005,1.273715,-9.332599,-18.492813,-6.995857000000001,0,stairs
-4.2808322,-9.6112832,-2.0954052,4.17409410757097,4.340061512709952,3.626447630789558,-0.158017,-2.930503,1.685518,-10.036493,-13.340492,-7.479486,0,stairs
-3.0243554,-9.3843128,-0.3610456,3.086837507372764,6.20479634923123,2.2097111351552945,0.8379709999999999,1.393425,2.652776,-7.517792999999999,-14.398729,-2.801216,0,stairs
-1.9124882,-7.777324599999998,-0.7967902,3.0896774425880933,3.444994675120601,1.4017784215499964,2.987964,-4.209007,1.647211,-5.473145,-11.985373,-1.915361,0,stairs
-3.9782054,-7.8922466,-1.9699492,1.9413015646073128,4.766594974739022,1.1986828451152958,-1.94888,-1.072602,-0.071826,-6.842628,-14.389153,-3.08852,0,stairs
-3.850834,-10.980766600000004,-1.4403516,3.2937765292628005,3.273925722222069,3.225259597511463,0.349553,-6.5792660000000005,0.732626,-8.614338,-15.021221,-6.995857000000001,0,stairs
-7.195054999999999,-13.491805,-1.6261416,2.6104102413820898,3.0292138902787147,3.505821686576529,-3.653552,-10.951078,1.685518,-10.036493,-18.492813,-6.440402,0,stairs
-2.7887658,-10.055647,-3.1948228,2.806687853463348,4.7362937515490415,2.7774336414346963,-0.158017,-2.930503,-0.11971,-7.517792999999999,-14.398729,-7.479486,0,stairs
-2.1097704,-7.354029800000001,0.0028731999999999,1.8744585834298395,5.814313719990795,1.8085135386950244,0.8379709999999999,1.393425,2.652776,-4.189853,-11.985373,-1.393425,0,stairs
-0.9931148,-7.399998400000001,-0.6167462,3.145060094838523,3.766933525510279,1.842755911929114,2.987964,-2.700659,1.647211,-5.473145,-11.60709,-2.662352,0,stairs
-4.5614328,-9.31536,-1.0620678,1.6425080545259745,2.346846592333424,1.652379023335657,-2.911349,-6.809108999999999,0.732626,-6.842628,-13.148955,-2.906561,0,stairs
-4.8343724,-12.3540804,-3.8048652,4.0758704278235225,4.548767460667373,3.006088575297841,0.349553,-6.5792660000000005,-0.148441,-9.332599,-18.492813,-6.995857000000001,0,stairs
-5.1504064,-9.7214164,-1.0572794,3.867563785357496,4.463580937918322,3.7164849120465697,-0.158017,-2.930503,1.685518,-10.036493,-13.891158,-7.479486,0,stairs
-3.4735076,-9.713755,-0.9184158000000004,2.4900448372574133,6.398737176973477,2.7400181486941286,-1.40779,1.393425,2.652776,-7.517792999999999,-14.398729,-3.916914,0,stairs
-2.3424868,-9.1123316,-1.352245,2.280927819074992,3.401578111770888,0.3373461471159854,0.8379709999999999,-4.209007,-1.077391,-5.473145,-11.985373,-1.915361,0,stairs
-0.2786848,-6.138733,-0.4443635999999999,2.7669459656479924,4.853863832822878,1.7276430325218517,2.987964,-0.641646,1.647211,-4.424484,-11.60709,-2.662352,0,stairs
-3.8489186,-10.546937200000002,-1.7803282000000002,3.294455195167526,3.45483956927528,3.143592130166969,0.349553,-6.5792660000000005,0.732626,-8.614338,-15.021221,-6.995857000000001,0,stairs
-5.7719416,-13.0838332,-1.5265430000000002,2.613671582647158,3.2785257362925653,3.5474397622938576,-2.920926,-10.726024,1.685518,-9.332599,-18.492813,-6.440402,0,stairs
-3.2925058,-10.2194104,-2.992752,3.88609920731557,4.831245571539683,2.9487760986205784,-0.158017,-2.930503,-0.11971,-10.036493,-14.398729,-7.479486,0,stairs
-3.1976956000000003,-8.9016416,-0.0794874,3.0570485515942987,5.797721057501542,1.8872131403135943,0.8379709999999999,1.393425,2.652776,-7.517792999999999,-11.985373,-1.656788,0,stairs
-1.1530474000000002,-7.701668000000001,-1.0505756,3.1833006101810897,3.331769999681625,1.6326545540373198,2.987964,-4.209007,1.647211,-5.473145,-11.60709,-2.662352,0,stairs
-2.20075,-4.6686932,0.4702213999999999,2.164680238311308,4.015935101749244,1.882577748250733,0.646435,-0.641646,3.485958,-4.424484,-10.726024,-1.082179,0,stairs
-3.981078600000001,-10.5411912,-2.3702596,3.264582533504216,3.0499207511080844,3.142394792125553,0.349553,-6.5792660000000005,0.732626,-8.614338,-15.021221,-6.995857000000001,0,stairs
-6.495948,-11.88769,-2.3214178,3.930358566353711,5.677244682783631,4.3404430499927305,-0.158017,-2.930503,1.685518,-10.036493,-18.492813,-7.479486,0,stairs
-3.1565152000000003,-9.1908614,-1.1683704,2.476904132360334,6.447949596082099,2.5573461278878145,-1.40779,1.393425,2.652776,-7.517792999999999,-14.398729,-3.916914,0,stairs
-2.0858284,-9.0213518,-0.9107542,1.8770255927626027,3.3532070787201915,1.1797189649468214,0.8379709999999999,-4.209007,1.1300629999999998,-4.189853,-11.985373,-1.915361,0,stairs
-1.5026008,-8.1565662,-0.4501098,3.5092975848812964,4.023398637094789,1.7302013067350577,2.987964,-2.700659,1.647211,-5.473145,-11.60709,-2.662352,0,stairs
-2.7236436,-5.521029,0.5372589999999999,2.320495043528492,5.269618714199254,1.722020033054784,0.646435,-0.641646,3.485958,-5.228936,-14.130578,-1.04866,0,stairs
-4.262637,-12.128067800000002,-3.262818,3.583891212316091,4.409044730334588,3.7033809165802807,0.349553,-6.5792660000000005,1.273715,-9.332599,-18.492813,-6.995857000000001,0,stairs
-4.2808322,-9.6112832,-2.0954052,4.17409410757097,4.340061512709952,3.626447630789558,-0.158017,-2.930503,1.685518,-10.036493,-13.340492,-7.479486,0,stairs
-3.0243554,-9.3843128,-0.3610456,3.086837507372764,6.20479634923123,2.2097111351552945,0.8379709999999999,1.393425,2.652776,-7.517792999999999,-14.398729,-2.801216,0,stairs
-1.9124882,-7.777324599999998,-0.7967902,3.0896774425880933,3.444994675120601,1.4017784215499964,2.987964,-4.209007,1.647211,-5.473145,-11.985373,-1.915361,0,stairs
-1.2009314,-6.4557254,-0.7594405999999999,2.0921387525420725,4.813984873016096,1.35410501876915,0.675165,-0.641646,0.924162,-4.424484,-11.60709,-2.662352,0,stairs
-5.380249599999999,-8.1556086,0.4424485999999999,3.401184921995098,5.047155689372857,2.2680425508077007,-3.021482,-2.671929,3.485958,-11.238382,-14.130578,-2.762909,0,stairs
-7.195054999999999,-13.491805,-1.6261416,2.6104102413820898,3.0292138902787147,3.505821686576529,-3.653552,-10.951078,1.685518,-10.036493,-18.492813,-6.440402,0,stairs
-2.7887658,-10.055647,-3.1948228,2.806687853463348,4.7362937515490415,2.7774336414346963,-0.158017,-2.930503,-0.11971,-7.517792999999999,-14.398729,-7.479486,0,stairs
-2.1097704,-7.354029800000001,0.0028731999999999,1.8744585834298395,5.814313719990795,1.8085135386950244,0.8379709999999999,1.393425,2.652776,-4.189853,-11.985373,-1.393425,0,stairs
-0.9931148,-7.399998400000001,-0.6167462,3.145060094838523,3.766933525510279,1.842755911929114,2.987964,-2.700659,1.647211,-5.473145,-11.60709,-2.662352,0,stairs
-2.9908364,-4.840118199999999,0.2777276000000001,2.446505278213047,3.9282619232618905,1.87374395682289,0.646435,-0.641646,3.485958,-5.228936,-10.726024,-1.082179,0,stairs
-5.1025224,-12.1816982,-0.5324704,4.299636342347722,3.5130807787116427,1.6117030362887266,-0.488417,-8.39886,1.312023,-11.238382,-17.00362,-2.762909,0,stairs
-5.1504064,-9.7214164,-1.0572794,3.867563785357496,4.463580937918322,3.7164849120465697,-0.158017,-2.930503,1.685518,-10.036493,-13.891158,-7.479486,0,stairs
-3.4735076,-9.713755,-0.9184158000000004,2.4900448372574133,6.398737176973477,2.7400181486941286,-1.40779,1.393425,2.652776,-7.517792999999999,-14.398729,-3.916914,0,stairs
-2.3424868,-9.1123316,-1.352245,2.280927819074992,3.401578111770888,0.3373461471159854,0.8379709999999999,-4.209007,-1.077391,-5.473145,-11.985373,-1.915361,0,stairs
-0.2786848,-6.138733,-0.4443635999999999,2.7669459656479924,4.853863832822878,1.7276430325218517,2.987964,-0.641646,1.647211,-4.424484,-11.60709,-2.662352,0,stairs
-3.457227,-7.0724718,1.0093956,1.3765304125517897,4.5693047766500765,1.485931299960163,-1.623269,-2.671929,3.485958,-5.228936,-14.130578,-0.038307,0,stairs
-4.7280694,-8.6631794,-1.7142482,4.684128751837133,6.675375463681111,2.308497114110976,-0.488417,0.708684,0.670377,-11.238382,-17.00362,-5.0517650000000005,0,stairs
-3.2925058,-10.2194104,-2.992752,3.88609920731557,4.831245571539683,2.9487760986205784,-0.158017,-2.930503,-0.11971,-10.036493,-14.398729,-7.479486,0,stairs
-3.1976956000000003,-8.9016416,-0.0794874,3.0570485515942987,5.797721057501542,1.8872131403135943,0.8379709999999999,1.393425,2.652776,-7.517792999999999,-11.985373,-1.656788,0,stairs
-1.1530474000000002,-7.701668000000001,-1.0505756,3.1833006101810897,3.331769999681625,1.6326545540373198,2.987964,-4.209007,1.647211,-5.473145,-11.60709,-2.662352,0,stairs
-2.20075,-4.6686932,0.4702213999999999,2.164680238311308,4.015935101749244,1.882577748250733,0.646435,-0.641646,3.485958,-4.424484,-10.726024,-1.082179,0,stairs
-4.6131474,-9.492531,-0.230801,4.066454765271563,4.010293361054774,1.5125271622055254,-0.488417,-3.557784,1.312023,-11.238382,-14.130578,-2.762909,0,stairs
-3.9868246,-7.355945199999999,-1.8521542,3.0280597428307625,6.458424844917776,2.1866661619926577,-0.521936,0.708684,0.670377,-7.675811,-17.00362,-5.0517650000000005,0,stairs
3.077986,-6.7372836,-0.4319137999999999,2.798717573087092,3.691913245996417,9.050917605134725,5.64074,-0.483629,10.582372,-0.8283940000000001,-10.127473,-14.422671,0,stairs
3.5731066,-10.8811678,1.4709974,3.943136466090705,4.932403245785739,3.6808099185558736,8.288725999999999,-7.474697,5.93762,-0.991199,-19.416977,-3.165135,0,stairs
2.6451142,-11.1828368,-0.7220912000000002,3.984333772434571,5.850923842051373,1.1397728266620502,6.952762,-4.788403,0.344765,-1.417367,-19.349937,-2.504335,0,stairs
1.527501,-9.3728206,-4.5633482,4.330971070313735,6.005008659551817,5.413339455599768,6.789956,-3.715801,1.192313,-4.649539,-16.539145,-10.836157,0,stairs
1.2239159999999998,-13.5722506,-1.7075444000000002,6.982362658582086,6.182651951767405,3.565694609029256,12.133814,-6.196194,1.896208,-6.320692,-18.703505,-7.508216,0,stairs
2.8519732,-7.640376399999999,-2.5646688,4.25492767129815,2.218821351763882,3.08360091694316,7.996633999999999,-5.003881,2.006341,-1.94888,-10.568007,-6.646304,0,stairs
-3.1565152000000003,-9.1908614,-1.1683704,2.476904132360334,6.447949596082099,2.5573461278878145,-1.40779,1.393425,2.652776,-7.517792999999999,-14.398729,-3.916914,0,stairs
-2.0858284,-9.0213518,-0.9107542,1.8770255927626027,3.3532070787201915,1.1797189649468214,0.8379709999999999,-4.209007,1.1300629999999998,-4.189853,-11.985373,-1.915361,0,stairs
-1.5026008,-8.1565662,-0.4501098,3.5092975848812964,4.023398637094789,1.7302013067350577,2.987964,-2.700659,1.647211,-5.473145,-11.60709,-2.662352,0,stairs
-2.7236436,-5.521029,0.5372589999999999,2.320495043528492,5.269618714199254,1.722020033054784,0.646435,-0.641646,3.485958,-5.228936,-14.130578,-1.04866,0,stairs
-4.5892056000000006,-9.2138458,-1.585919,4.7316906629818165,6.474759217092802,2.4852652683891714,-0.488417,0.708684,1.312023,-11.238382,-17.00362,-5.0517650000000005,0,stairs
-3.3834856,-8.7235134,0.4271255999999999,2.0486887018732984,3.061290490706134,3.334837511547122,-1.240196,-5.645528,5.971139,-6.354211,-12.717999,-2.753332,0,stairs
-3.0243554,-9.3843128,-0.3610456,3.086837507372764,6.20479634923123,2.2097111351552945,0.8379709999999999,1.393425,2.652776,-7.517792999999999,-14.398729,-2.801216,0,stairs
-1.9124882,-7.777324599999998,-0.7967902,3.0896774425880933,3.444994675120601,1.4017784215499964,2.987964,-4.209007,1.647211,-5.473145,-11.985373,-1.915361,0,stairs
-1.2009314,-6.4557254,-0.7594405999999999,2.0921387525420725,4.813984873016096,1.35410501876915,0.675165,-0.641646,0.924162,-4.424484,-11.60709,-2.662352,0,stairs
-5.380249599999999,-8.1556086,0.4424485999999999,3.401184921995098,5.047155689372857,2.2680425508077007,-3.021482,-2.671929,3.485958,-11.238382,-14.130578,-2.762909,0,stairs
-2.8136658,-8.0837826,-1.7123328,3.017839158377845,6.432605847163948,2.3074132177405287,-0.488417,0.708684,0.670377,-7.675811,-17.00362,-5.0517650000000005,0,stairs
-4.5614328,-11.3839504,-0.2499546,3.8442596685291295,3.509090377786856,3.657455306906538,-1.043872,-5.717354,5.971139,-10.228029,-14.465767,-3.600879,0,stairs
-2.1097704,-7.354029800000001,0.0028731999999999,1.8744585834298395,5.814313719990795,1.8085135386950244,0.8379709999999999,1.393425,2.652776,-4.189853,-11.985373,-1.393425,0,stairs
-0.9931148,-7.399998400000001,-0.6167462,3.145060094838523,3.766933525510279,1.842755911929114,2.987964,-2.700659,1.647211,-5.473145,-11.60709,-2.662352,0,stairs
-2.9908364,-4.840118199999999,0.2777276000000001,2.446505278213047,3.9282619232618905,1.87374395682289,0.646435,-0.641646,3.485958,-5.228936,-10.726024,-1.082179,0,stairs
-5.1025224,-12.1816982,-0.5324704,4.299636342347722,3.5130807787116427,1.6117030362887266,-0.488417,-8.39886,1.312023,-11.238382,-17.00362,-2.762909,0,stairs
-3.2398336,-6.498821,-0.3485956,2.251671485086424,4.971058447308179,4.151300381170074,-0.521936,0.708684,5.971139,-6.354211,-12.717999,-5.0517650000000005,0,stairs
-5.7987562,-13.0742568,-4.8085146000000005,4.517387084260569,1.9185895227973333,5.00072515673925,-1.043872,-10.414778,-1.173159,-10.228029,-15.049952,-13.517663,0,stairs
-2.3424868,-9.1123316,-1.352245,2.280927819074992,3.401578111770888,0.3373461471159854,0.8379709999999999,-4.209007,-1.077391,-5.473145,-11.985373,-1.915361,0,stairs
-0.2786848,-6.138733,-0.4443635999999999,2.7669459656479924,4.853863832822878,1.7276430325218517,2.987964,-0.641646,1.647211,-4.424484,-11.60709,-2.662352,0,stairs
-3.457227,-7.0724718,1.0093956,1.3765304125517897,4.5693047766500765,1.485931299960163,-1.623269,-2.671929,3.485958,-5.228936,-14.130578,-0.038307,0,stairs
-4.7280694,-8.6631794,-1.7142482,4.684128751837133,6.675375463681111,2.308497114110976,-0.488417,0.708684,0.670377,-11.238382,-17.00362,-5.0517650000000005,0,stairs
-4.685931200000001,-10.4875612,-0.0804452,3.709582850986846,3.369946474153069,3.478593615850693,-1.240196,-5.717354,5.971139,-10.228029,-14.465767,-2.753332,0,stairs
-5.4769758,-11.1100534,-4.61219,3.880089165113632,4.8097546146982175,5.189088030583505,-1.043872,-2.806004,-0.263362,-10.070012,-15.049952,-13.517663,0,stairs
-1.1530474000000002,-7.701668000000001,-1.0505756,3.1833006101810897,3.331769999681625,1.6326545540373198,2.987964,-4.209007,1.647211,-5.473145,-11.60709,-2.662352,0,stairs
-2.20075,-4.6686932,0.4702213999999999,2.164680238311308,4.015935101749244,1.882577748250733,0.646435,-0.641646,3.485958,-4.424484,-10.726024,-1.082179,0,stairs
-4.6131474,-9.492531,-0.230801,4.066454765271563,4.010293361054774,1.5125271622055254,-0.488417,-3.557784,1.312023,-11.238382,-14.130578,-2.762909,0,stairs
-3.9868246,-7.355945199999999,-1.8521542,3.0280597428307625,6.458424844917776,2.1866661619926577,-0.521936,0.708684,0.670377,-7.675811,-17.00362,-5.0517650000000005,0,stairs
-4.572925,-12.6078662,-0.9107542,3.851038842501981,1.5700231022079578,4.0130410406794,-1.043872,-10.414778,5.971139,-10.228029,-14.465767,-3.883395,0,stairs
-5.7049036,-8.263826400000001,-3.1028854000000003,3.2506885567458323,5.212039641886399,5.972488718918882,-1.929727,-2.806004,1.580173,-10.070012,-15.049952,-13.517663,0,stairs
-1.5026008,-8.1565662,-0.4501098,3.5092975848812964,4.023398637094789,1.7302013067350577,2.987964,-2.700659,1.647211,-5.473145,-11.60709,-2.662352,0,stairs
-2.7236436,-5.521029,0.5372589999999999,2.320495043528492,5.269618714199254,1.722020033054784,0.646435,-0.641646,3.485958,-5.228936,-14.130578,-1.04866,0,stairs
-4.5892056000000006,-9.2138458,-1.585919,4.7316906629818165,6.474759217092802,2.4852652683891714,-0.488417,0.708684,1.312023,-11.238382,-17.00362,-5.0517650000000005,0,stairs
-3.3834856,-8.7235134,0.4271255999999999,2.0486887018732984,3.061290490706134,3.334837511547122,-1.240196,-5.645528,5.971139,-6.354211,-12.717999,-2.753332,0,stairs
-7.136636200000001,-13.442006,-4.6265552,3.7562460302946334,1.3827979334300795,5.179432017016268,-1.043872,-11.836933,-0.263362,-10.228029,-15.049952,-13.517663,0,stairs
-3.2091878,-7.199843,-0.704853,3.4128709302101803,3.922658992039137,1.3949399691232238,1.82917,-2.806004,1.580173,-7.350199000000001,-12.670115,-1.795651,0,stairs
-1.2009314,-6.4557254,-0.7594405999999999,2.0921387525420725,4.813984873016096,1.35410501876915,0.675165,-0.641646,0.924162,-4.424484,-11.60709,-2.662352,0,stairs
-5.380249599999999,-8.1556086,0.4424485999999999,3.401184921995098,5.047155689372857,2.2680425508077007,-3.021482,-2.671929,3.485958,-11.238382,-14.130578,-2.762909,0,stairs
-2.8136658,-8.0837826,-1.7123328,3.017839158377845,6.432605847163948,2.3074132177405287,-0.488417,0.708684,0.670377,-7.675811,-17.00362,-5.0517650000000005,0,stairs
-4.5614328,-11.3839504,-0.2499546,3.8442596685291295,3.509090377786856,3.657455306906538,-1.043872,-5.717354,5.971139,-10.228029,-14.465767,-3.600879,0,stairs
-6.159802000000001,-9.7453584,-3.5759796,3.133488706117433,4.892597331090441,5.908901927944972,-1.929727,-2.806004,1.580173,-10.070012,-15.049952,-13.517663,0,stairs
-0.7881712000000004,-5.9625196,2.7715278,4.748520292576384,5.865476722256027,5.347609457173803,3.969586,2.920926,9.255983,-7.350199000000001,-12.670115,-1.517924,0,stairs
-2.9908364,-4.840118199999999,0.2777276000000001,2.446505278213047,3.9282619232618905,1.87374395682289,0.646435,-0.641646,3.485958,-5.228936,-10.726024,-1.082179,0,stairs
-5.1025224,-12.1816982,-0.5324704,4.299636342347722,3.5130807787116427,1.6117030362887266,-0.488417,-8.39886,1.312023,-11.238382,-17.00362,-2.762909,0,stairs
-3.2398336,-6.498821,-0.3485956,2.251671485086424,4.971058447308179,4.151300381170074,-0.521936,0.708684,5.971139,-6.354211,-12.717999,-5.0517650000000005,0,stairs
-5.7987562,-13.0742568,-4.8085146000000005,4.517387084260569,1.9185895227973333,5.00072515673925,-1.043872,-10.414778,-1.173159,-10.228029,-15.049952,-13.517663,0,stairs
-3.3250672000000003,-7.116524799999999,-0.4654328,3.5936712281619063,3.779223483561896,1.3342402088802077,1.82917,-2.806004,1.580173,-7.929596000000001,-12.253524,-1.795651,0,stairs
0.8916005999999997,-2.383667,7.5158778,4.679136624675678,6.887014442617098,5.373188683923653,3.969586,2.920926,12.976573,-7.350199000000001,-12.670115,-1.4604629999999998,0,stairs
0.905966,-8.8116196,0.0565030000000001,3.536591216576705,3.8565251375067935,2.491450636683276,7.11078,-3.4811690000000004,3.040636,-1.790863,-13.086706,-3.117251,0,stairs
1.7803283999999997,-11.4691836,-0.5286396000000002,2.028730854132282,6.285128499781711,2.4704185431736665,4.094085,-4.180276,2.418144,-1.125275,-19.2829,-4.3574470000000005,0,stairs
0.3361460000000003,-15.665740600000005,-8.994536799999999,4.592432560537987,3.771357533409528,10.835259828149496,5.185841,-12.497733,-2.365471,-7.254430999999999,-22.117636,-28.031313,0,stairs
-2.3530214000000003,-10.1035312,-2.7284324,3.3065153470021578,6.904136179537865,6.231480410095446,0.086191,0.526724,3.193865,-7.939172,-17.745823,-13.10586,0,stairs
0.4242524,-9.546161199999998,-2.038902,2.7546047168166075,2.1014125250395743,3.1313697361634736,2.686294,-6.133945,1.063026,-4.34787,-11.219229,-6.23929,0,stairs
1.2641386,-7.896077400000001,-0.6100425999999999,2.324780924373585,3.540470029019989,2.695730093907456,4.094085,-3.064578,4.031836,-1.94888,-11.401189,-2.513912,0,stairs
-0.0536302,-9.5001922,-0.227928,1.8426004161059173,3.642824782625661,2.228588276417719,2.992752,-4.180276,2.418144,-1.790863,-13.086706,-3.117251,0,stairs
0.0737416000000002,-15.933891,-7.2640078,4.3311229376087095,5.728000119197364,11.7212670354854,4.094085,-6.933608,-0.287304,-7.254430999999999,-22.117636,-28.031313,0,stairs
1.39151,-10.1494998,-2.9333759999999995,2.472554578268496,6.229956051758407,3.0747283873774927,5.185841,0.526724,0.038307,-1.474828,-15.083470000000002,-7.560888999999999,0,stairs
-1.3637373999999998,-12.1711638,-3.2225954000000003,4.1203745896711625,3.8214255249847136,6.248325193036395,2.686294,-8.829816000000001,3.193865,-7.939172,-17.745823,-13.10586,0,stairs
-0.4319140000000001,-7.274542600000001,-2.4056938,2.62886462777118,3.439286364725581,2.5930757060261853,1.714248,-3.064578,1.063026,-4.34787,-11.219229,-6.23929,0,stairs
1.7937360000000002,-9.2272534,-2.3300372000000005,1.659130394738762,1.8191020527227988,4.715235243344568,4.094085,-7.067683000000001,4.031836,0.21069,-11.401189,-8.537724,0,stairs
2.816539,-8.155608400000002,-1.2708422,1.8021820060095208,1.252620230297196,7.825153386165263,4.97994,-7.115567,5.93762,1.106121,-10.127473,-14.422671,0,stairs
3.0310594,-9.9196564,-0.3380614000000001,4.30758453439933,5.746803559395849,2.6635525491689287,8.288725999999999,-4.788403,4.074930999999999,-0.991199,-19.416977,-3.165135,0,stairs
1.6203960000000002,-12.670115,-2.0887014,5.159644581938372,5.792886361602695,4.450245101735724,6.952762,-3.715801,1.192313,-4.649539,-19.349937,-9.653421,0,stairs
2.720771,-10.6197208,-3.3298556000000006,3.221498473584071,5.967098392667428,4.369058806184096,6.789956,-4.606444000000001,-0.0430959999999999,-1.6519990000000002,-17.535133,-10.836157,0,stairs
3.8134846,-11.8685368,-3.1000122,7.476601877271103,6.185677518615863,3.9781224171948506,12.133814,-5.918466,1.896208,-6.320692,-18.703505,-7.508216,0,stairs
2.8232428,-9.8420842,-1.996764,5.568714181702874,3.825869389407681,2.416789582404724,12.411542,-5.003881,2.006341,-1.94888,-13.881581,-4.386177,0,stairs
1.5476119999999998,-10.0182974,-0.983538,2.23144851256342,4.656840221312762,2.737674484163795,4.094085,-4.180276,2.418144,-1.125275,-16.232687,-4.3574470000000005,0,stairs
-0.5487509999999999,-16.816872600000004,-8.6899944,3.778485005276188,3.833330258434146,11.08664353768641,1.762132,-12.497733,-0.842759,-7.254430999999999,-22.117636,-28.031313,0,stairs
-0.8178592000000002,-11.043016,-3.8402996,4.710739098734688,7.006330327492168,5.343273424064999,5.185841,0.526724,0.038307,-7.939172,-17.745823,-13.10586,0,stairs
-0.4165912,-9.0682786,-1.6127341999999998,2.9002112998008784,1.8865228654077584,3.744118851230647,2.686294,-6.133945,3.193865,-4.34787,-11.013328,-6.23929,0,stairs
0.7881712000000001,-7.859685400000001,-0.2671927999999999,1.7804284878300225,3.49609136913508,2.796317924742947,2.738967,-3.064578,4.031836,-1.94888,-11.219229,-2.513912,0,stairs
3.304956,-8.877699799999998,-4.0088512000000005,3.54822858879836,1.605433491942036,3.802323275925615,9.141062,-7.067683000000001,0.42138,0.277727,-11.401189,-8.537724,0,stairs
-0.2691081999999998,-12.346419,-1.1741164000000002,4.347957855619888,6.457532966454372,2.5778680900093205,4.094085,-4.180276,2.418144,-7.254430999999999,-19.2829,-4.3574470000000005,0,stairs
1.4920666,-12.539871000000002,-8.426632199999998,2.41576865410283,8.214561100802282,11.305240914991826,5.185841,0.526724,0.038307,-1.474828,-22.117636,-28.031313,0,stairs
-1.883758,-12.4115416,-2.5589228000000004,3.6144632360438393,3.600667650243396,6.336204530028974,0.871489,-8.829816000000001,3.193865,-7.939172,-17.745823,-13.10586,0,stairs
-0.1398214,-7.9564112,-2.7188554,2.9237060871414218,3.3498341544236485,2.673090606322352,2.686294,-3.064578,1.063026,-4.34787,-11.219229,-6.23929,0,stairs
1.9833568,-8.9246264,-1.814805,1.487893412594195,2.3239854910191027,4.500944191005206,4.094085,-5.5545480000000005,4.031836,0.21069,-11.401189,-8.537724,0,stairs
3.877649,-8.1201744,-1.7334016000000003,4.301179736263238,4.665382963214146,4.415872505604561,9.141062,-1.40779,4.683059,0.277727,-14.413095000000002,-6.382941000000001,0,stairs
-0.4654325999999997,-17.046715999999996,-7.235277399999999,3.846167754968288,3.73664728666789,11.7303450389406,2.1787240000000003,-12.497733,-0.287304,-7.254430999999999,-22.117636,-28.031313,0,stairs
1.1224016000000003,-11.1991178,-2.7313054,2.5438381513935395,7.105118698780142,3.0018793620186166,5.185841,0.526724,0.038307,-1.474828,-17.745823,-7.560888999999999,0,stairs
-1.1348516,-10.702081799999998,-3.829765,4.248519777879386,2.218157780566724,6.391851760500434,2.686294,-8.829816000000001,3.193865,-7.939172,-14.302960999999998,-13.10586,0,stairs
-0.6291962,-7.354987599999999,-1.4777012,2.510396663029212,3.5340768666700364,1.4615131484138963,1.714248,-3.064578,1.063026,-4.34787,-11.219229,-2.513912,0,stairs
2.024537,-8.772355200000002,-3.28676,1.4510815535785713,1.5975591046709978,5.006227942168286,4.094085,-7.067683000000001,4.031836,0.277727,-11.401189,-8.537724,0,stairs
4.1668688,-3.0559588000000004,4.8918332,4.084260041482875,8.583390983893848,6.326414708106931,9.141062,4.994305000000001,13.445837,0.651223,-14.413095000000002,-2.494758,0,stairs
0.3361460000000003,-15.665740600000005,-8.994536799999999,4.592432560537987,3.771357533409528,10.835259828149496,5.185841,-12.497733,-2.365471,-7.254430999999999,-22.117636,-28.031313,0,stairs
-2.3530214000000003,-10.1035312,-2.7284324,3.3065153470021578,6.904136179537865,6.231480410095446,0.086191,0.526724,3.193865,-7.939172,-17.745823,-13.10586,0,stairs
0.4242524,-9.546161199999998,-2.038902,2.7546047168166075,2.1014125250395743,3.1313697361634736,2.686294,-6.133945,1.063026,-4.34787,-11.219229,-6.23929,0,stairs
1.2641386,-7.896077400000001,-0.6100425999999999,2.324780924373585,3.540470029019989,2.695730093907456,4.094085,-3.064578,4.031836,-1.94888,-11.401189,-2.513912,0,stairs
4.0768466000000005,-9.480081000000002,-4.377558200000001,4.134223597415397,2.862164981063112,3.470221030719398,9.141062,-7.067683000000001,0.42138,0.277727,-14.413095000000002,-8.537724,0,stairs
1.2172124,3.2149344,8.5530464,0.7505538087164703,2.6502213462183306,3.283426303157313,2.418144,4.994305000000001,13.445837,0.651223,-1.40779,4.683059,0,stairs
1.5907076,-7.331045399999999,-0.0632068000000001,1.644286584599321,2.903462514723292,1.1738981282056378,3.696648,-4.865018,1.374272,-0.665588,-12.248735,-1.2162540000000002,0,stairs
1.5303736,-8.9610178,-0.9165004,0.5803420261787872,5.811331215793307,1.388540516338396,2.394202,-3.950433,0.78051,1.072602,-17.520767000000003,-2.8491,0,stairs
3.902549,-9.123824,-1.370441,0.736597576090568,5.152684914233307,1.5760807311954232,4.88896,-2.686294,-0.062249,3.169923,-16.864758,-4.031835,0,stairs
5.1599834,-11.85896,-4.8027688,4.686925349128178,7.140852463973646,5.219021410423577,12.196063,-2.72939,0.641646,0.416591,-21.049822,-11.789049,0,stairs
1.6175228,-9.2684334,-1.2382812,4.67372736745766,2.755158266458626,2.1890876293552526,5.133168,-5.521029,1.297657,-6.354211,-12.799402,-4.673482,0,stairs
1.7228677999999995,-7.6930486,0.8418015999999998,4.112417024322947,7.459982284961661,3.475698740668889,6.56969,3.016694,6.277597,-4.76925,-17.48246,-2.590526,0,stairs
1.9843144,-9.6562938,-0.0756566,1.162831370910374,5.132189253700092,1.1706123346197066,3.696648,-5.6982,1.374272,0.727837,-17.520767000000003,-1.235408,0,stairs
2.6968288,-7.519708599999999,-1.0658986,1.840172589536292,3.5007598460003364,1.161741185858666,4.88896,-3.950433,0.009577,1.072602,-12.325351,-2.8491,0,stairs
4.5537716,-13.244724200000002,-4.156334200000001,4.463514853976382,7.234579929207583,4.522198748987455,12.196063,-2.686294,-0.3304,0.416591,-21.049822,-11.789049,0,stairs
1.9373882,-7.508216399999999,-2.7935548000000003,5.045592984542917,3.509184206300348,3.7790298540494094,6.291962,-2.72939,0.641646,-6.354211,-11.525687,-8.528147,0,stairs
3.3968934000000006,-9.043378399999998,-1.0467448,1.4845423920652454,2.8297247866400896,1.4507895963223614,5.133168,-5.204994,1.297657,1.685518,-12.799402,-2.590526,0,stairs
2.0427332,-3.8192304,5.0067548,4.22888110110094,9.31119361370562,3.8576490102984615,6.56969,3.069367,9.504981,-4.76925,-17.48246,0.234632,0,stairs
2.3817517999999995,-10.691547,2.1136012,3.5001451518928035,5.083701605231615,3.418813748129488,8.288725999999999,-7.115567,5.93762,-0.991199,-19.416977,-3.165135,0,stairs
4.341166599999999,-8.9255836,-0.9519346,3.610045962983616,3.690696031524379,1.0229850121904525,7.062895,-4.788403,0.344765,0.02873,-13.982138,-2.504335,0,stairs
1.0572798,-12.3215192,-4.425442200000001,4.53440723765827,6.663161873372896,5.549412011850553,6.789956,-3.715801,1.192313,-4.649539,-19.349937,-10.836157,0,stairs
-1.016099,-10.752838399999998,-0.308373,3.570138145213922,6.465509089203904,1.4873622857157232,3.2896330000000003,-4.606444000000001,1.896208,-6.320692,-17.956512,-2.2505490000000004,0,stairs
5.005796999999999,-9.770258600000002,-3.421793,5.769822903197116,5.459677966748067,3.819910372729444,12.133814,-5.003881,2.006341,-1.94888,-18.703505,-7.508216,0,stairs
4.3775584,-13.3136764,-2.6460716,4.729393307360766,3.508218073853919,1.708005789878594,12.411542,-8.054094000000001,0.004788,1.201889,-17.908628,-4.386177,0,stairs
3.455312,-10.1054464,0.9787494,4.033716738817192,5.624166089494495,3.840481046940252,8.288725999999999,-4.788403,5.93762,-0.991199,-19.416977,-3.165135,0,stairs
2.5560498,-10.9683164,-2.4564508,4.0414045959221525,6.155708412273912,4.179043177456557,6.952762,-3.715801,0.344765,-1.417367,-19.349937,-9.653421,0,stairs
2.121263,-10.1236422,-2.6412832,4.32768738687587,5.316038290697943,4.828797618646716,6.789956,-4.606444000000001,1.192313,-4.649539,-16.539145,-10.836157,0,stairs
1.883758,-14.1918702,-2.2208612000000003,7.371428810791466,5.540036213516632,3.449010787825793,12.133814,-6.196194,1.896208,-6.320692,-18.703505,-7.508216,0,stairs
1.9402612,-8.2494612,-2.4487894000000003,3.707172877673053,3.35201848222615,3.0923607672086546,7.996633999999999,-5.003881,2.006341,-1.94888,-13.613431,-6.646304,0,stairs
1.5284584000000003,-12.0782688,1.3752293999999998,7.591612711687735,7.708464345699972,6.218373123728608,12.411542,1.249773,10.716447,-6.847417,-17.908628,-4.386177,0,stairs
2.7638666,-10.0125514,0.3639185999999999,3.924311128345241,5.76797292969244,2.14406599009086,7.062895,-4.788403,4.074930999999999,-0.991199,-19.416977,-0.981623,0,stairs
1.0783488,-13.7283522,-4.3248858,4.567824744654418,5.949320658466285,5.585972235477831,6.895301,-3.715801,1.192313,-4.649539,-19.349937,-10.836157,0,stairs
0.6081274000000002,-8.551130599999999,-0.7833826000000002,4.965586814729384,5.137064636642924,1.9299777040510857,6.789956,-4.606444000000001,1.896208,-6.320692,-17.535133,-3.007117,0,stairs
5.1293378,-12.3607848,-3.949475000000001,5.587414614987615,5.700320020428125,2.9703762737801416,12.133814,-5.918466,-0.632069,-1.331176,-18.703505,-7.508216,0,stairs
3.7474046,-10.732727,-2.2457610000000003,5.418074423987299,3.995716349153741,2.5241720727993173,12.411542,-5.003881,2.006341,-1.94888,-13.881581,-4.386177,0,stairs
0.386903,-11.8905638,-0.2633621999999995,6.035785279973601,7.742042379229927,8.450039599179355,8.532935,1.249773,10.716447,-6.847417,-17.908628,-11.492168,0,stairs
2.6451142,-11.1828368,-0.7220912000000002,3.984333772434571,5.850923842051373,1.1397728266620502,6.952762,-4.788403,0.344765,-1.417367,-19.349937,-2.504335,0,stairs
1.527501,-9.3728206,-4.5633482,4.330971070313735,6.005008659551817,5.413339455599768,6.789956,-3.715801,1.192313,-4.649539,-16.539145,-10.836157,0,stairs
1.2239159999999998,-13.5722506,-1.7075444000000002,6.982362658582086,6.182651951767405,3.565694609029256,12.133814,-6.196194,1.896208,-6.320692,-18.703505,-7.508216,0,stairs
2.8519732,-7.640376399999999,-2.5646688,4.25492767129815,2.218821351763882,3.08360091694316,7.996633999999999,-5.003881,2.006341,-1.94888,-10.568007,-6.646304,0,stairs
2.7351360000000007,-15.0509096,-1.1741166000000005,6.944487281043,2.134171291412032,3.410131982089008,12.411542,-13.110648,4.13718,-6.847417,-17.908628,-4.386177,0,stairs
2.1739352,-7.4881054,-1.2631805999999997,4.486403033012995,6.313975719882228,8.10340924699014,8.532935,1.249773,10.716447,-4.003105000000001,-14.571112,-11.492168,0,stairs
6.0037004000000005,-1.4451400000000003,-0.1474826,1.4498878719417578,3.4266496652485503,2.666256191056066,7.891288999999999,2.973599,3.936068,4.534618,-5.755661,-3.342306,0,stairs
1.2679692,-6.3283536,-0.2710236000000001,3.135196966310203,1.1112428749408472,2.2372419485086543,4.941633,-4.932055,2.949657,-2.8682540000000003,-7.718906,-2.954445,0,stairs
4.8640604,-11.6837044,-1.3330912,2.7773550075703866,4.933319187261585,3.7164312783727342,8.073248,-5.856217,1.910573,1.1683709999999998,-16.845604,-7.517792999999999,0,stairs
1.8435354,-9.4523078,0.3035848,2.1993240771680966,5.820866713360322,1.1670727119501596,3.830723,-1.508347,1.905785,-1.5466540000000002,-17.3005,-1.158794,0,stairs
0.6282388,-7.0542756,0.8925583999999998,3.533203308452643,1.2354561899591177,5.655919924861719,4.458004,-5.803545,9.792285,-4.582502,-8.705316999999999,-5.401319,0,stairs
2.3769638,-7.004476599999999,-0.0689528000000002,3.707530651171774,3.773575307775016,9.219717842595818,5.64074,-0.483629,10.582372,-2.39899,-10.127473,-14.422671,0,stairs
1.6203960000000002,-12.670115,-2.0887014,5.159644581938372,5.792886361602695,4.450245101735724,6.952762,-3.715801,1.192313,-4.649539,-19.349937,-9.653421,0,stairs
2.720771,-10.6197208,-3.3298556000000006,3.221498473584071,5.967098392667428,4.369058806184096,6.789956,-4.606444000000001,-0.0430959999999999,-1.6519990000000002,-17.535133,-10.836157,0,stairs
3.8134846,-11.8685368,-3.1000122,7.476601877271103,6.185677518615863,3.9781224171948506,12.133814,-5.918466,1.896208,-6.320692,-18.703505,-7.508216,0,stairs
2.8232428,-9.8420842,-1.996764,5.568714181702874,3.825869389407681,2.416789582404724,12.411542,-5.003881,2.006341,-1.94888,-13.881581,-4.386177,0,stairs
-0.3438074,-11.598471,1.3158531999999998,4.921322651122846,7.642538135179241,6.288164916592257,4.879383,1.249773,10.716447,-6.847417,-17.908628,-4.683058,0,stairs
2.4641126,-8.032067999999999,-1.874181,4.5003205190920905,4.588243518575545,5.538150888484215,8.532935,-3.605668,2.475605,-3.77805,-14.571112,-11.492168,0,stairs
1.0572798,-12.3215192,-4.425442200000001,4.53440723765827,6.663161873372896,5.549412011850553,6.789956,-3.715801,1.192313,-4.649539,-19.349937,-10.836157,0,stairs
-1.016099,-10.752838399999998,-0.308373,3.570138145213922,6.465509089203904,1.4873622857157232,3.2896330000000003,-4.606444000000001,1.896208,-6.320692,-17.956512,-2.2505490000000004,0,stairs
5.005796999999999,-9.770258600000002,-3.421793,5.769822903197116,5.459677966748067,3.819910372729444,12.133814,-5.003881,2.006341,-1.94888,-18.703505,-7.508216,0,stairs
4.3775584,-13.3136764,-2.6460716,4.729393307360766,3.508218073853919,1.708005789878594,12.411542,-8.054094000000001,0.004788,1.201889,-17.908628,-4.386177,0,stairs
0.5841851999999997,-10.1064048,-0.5190627999999998,6.085002946240306,7.000884113858598,8.459235650714886,8.532935,1.249773,10.716447,-6.847417,-16.74026,-11.492168,0,stairs
-0.0517145999999998,-5.086242,0.8705318,3.725581695897609,3.201490016632333,1.473313526345869,4.276045,-1.441309,2.475605,-4.094085,-9.346964,-1.173159,0,stairs
2.121263,-10.1236422,-2.6412832,4.32768738687587,5.316038290697943,4.828797618646716,6.789956,-4.606444000000001,1.192313,-4.649539,-16.539145,-10.836157,0,stairs
1.883758,-14.1918702,-2.2208612000000003,7.371428810791466,5.540036213516632,3.449010787825793,12.133814,-6.196194,1.896208,-6.320692,-18.703505,-7.508216,0,stairs
1.9402612,-8.2494612,-2.4487894000000003,3.707172877673053,3.35201848222615,3.0923607672086546,7.996633999999999,-5.003881,2.006341,-1.94888,-13.613431,-6.646304,0,stairs
1.5284584000000003,-12.0782688,1.3752293999999998,7.591612711687735,7.708464345699972,6.218373123728608,12.411542,1.249773,10.716447,-6.847417,-17.908628,-4.386177,0,stairs
3.8297652,-9.6074528,-3.3059136,2.8751271160095166,4.0034930659744745,5.034985640999714,8.532935,-3.648763,0.502782,1.101333,-14.571112,-11.492168,0,stairs
-0.7393295999999999,-7.746679,1.3819334,3.0558333647843594,5.387153437457903,1.597830353395597,2.236184,-1.441309,2.652776,-4.094085,-13.733141,-1.173159,0,stairs
0.6081274000000002,-8.551130599999999,-0.7833826000000002,4.965586814729384,5.137064636642924,1.9299777040510857,6.789956,-4.606444000000001,1.896208,-6.320692,-17.535133,-3.007117,0,stairs
5.1293378,-12.3607848,-3.949475000000001,5.587414614987615,5.700320020428125,2.9703762737801416,12.133814,-5.918466,-0.632069,-1.331176,-18.703505,-7.508216,0,stairs
3.7474046,-10.732727,-2.2457610000000003,5.418074423987299,3.995716349153741,2.5241720727993173,12.411542,-5.003881,2.006341,-1.94888,-13.881581,-4.386177,0,stairs
0.386903,-11.8905638,-0.2633621999999995,6.035785279973601,7.742042379229927,8.450039599179355,8.532935,1.249773,10.716447,-6.847417,-17.908628,-11.492168,0,stairs
1.2047624,-6.595546799999999,0.1896207999999999,3.012601475095951,2.808247859727788,1.5308355249971173,4.276045,-3.605668,2.475605,-3.77805,-9.346964,-1.273715,0,stairs
0.6560112,-8.188169599999998,-0.0622490000000001,2.9354299789250127,5.025964088037916,3.566966902388008,3.438074,-1.441309,2.652776,-4.094085,-13.733141,-6.210559,0,stairs
1.2239159999999998,-13.5722506,-1.7075444000000002,6.982362658582086,6.182651951767405,3.565694609029256,12.133814,-6.196194,1.896208,-6.320692,-18.703505,-7.508216,0,stairs
2.8519732,-7.640376399999999,-2.5646688,4.25492767129815,2.218821351763882,3.08360091694316,7.996633999999999,-5.003881,2.006341,-1.94888,-10.568007,-6.646304,0,stairs
2.7351360000000007,-15.0509096,-1.1741166000000005,6.944487281043,2.134171291412032,3.410131982089008,12.411542,-13.110648,4.13718,-6.847417,-17.908628,-4.386177,0,stairs
2.1739352,-7.4881054,-1.2631805999999997,4.486403033012995,6.313975719882228,8.10340924699014,8.532935,1.249773,10.716447,-4.003105000000001,-14.571112,-11.492168,0,stairs
0.1302446,-6.869443599999999,0.9519346,3.817070050742493,4.443004718193905,1.4530673404103818,4.276045,-1.441309,2.475605,-4.094085,-12.564771,-1.173159,0,stairs
5.0833692,-6.6175734,0.6646308000000001,5.036335958108156,5.485812480266464,6.621258457558896,12.650962,1.61848,10.716447,-0.071826,-13.733141,-6.210559,0,stairs
3.8134846,-11.8685368,-3.1000122,7.476601877271103,6.185677518615863,3.9781224171948506,12.133814,-5.918466,1.896208,-6.320692,-18.703505,-7.508216,0,stairs
2.8232428,-9.8420842,-1.996764,5.568714181702874,3.825869389407681,2.416789582404724,12.411542,-5.003881,2.006341,-1.94888,-13.881581,-4.386177,0,stairs
-0.3438074,-11.598471,1.3158531999999998,4.921322651122846,7.642538135179241,6.288164916592257,4.879383,1.249773,10.716447,-6.847417,-17.908628,-4.683058,0,stairs
2.4641126,-8.032067999999999,-1.874181,4.5003205190920905,4.588243518575545,5.538150888484215,8.532935,-3.605668,2.475605,-3.77805,-14.571112,-11.492168,0,stairs
0.4156332000000001,-8.237969,-0.3552994,2.6895706620659183,5.014195672661718,3.5906887090557293,2.236184,-1.441309,2.652776,-4.094085,-13.733141,-6.210559,0,stairs
5.836106200000001,-6.1598022,-0.6301535999999998,4.259136758082464,4.4038898211576205,7.012899673157587,12.650962,1.61848,10.716447,2.767697,-8.935161,-7.881711999999999,0,stairs
5.005796999999999,-9.770258600000002,-3.421793,5.769822903197116,5.459677966748067,3.819910372729444,12.133814,-5.003881,2.006341,-1.94888,-18.703505,-7.508216,0,stairs
4.3775584,-13.3136764,-2.6460716,4.729393307360766,3.508218073853919,1.708005789878594,12.411542,-8.054094000000001,0.004788,1.201889,-17.908628,-4.386177,0,stairs
0.5841851999999997,-10.1064048,-0.5190627999999998,6.085002946240306,7.000884113858598,8.459235650714886,8.532935,1.249773,10.716447,-6.847417,-16.74026,-11.492168,0,stairs
-0.0517145999999998,-5.086242,0.8705318,3.725581695897609,3.201490016632333,1.473313526345869,4.276045,-1.441309,2.475605,-4.094085,-9.346964,-1.173159,0,stairs
4.0050206,-7.5762118,1.6548724,4.992572173324367,6.120029549222593,6.072913841759391,12.650962,1.61848,10.716447,-0.071826,-13.733141,-6.210559,0,stairs
2.7044902,-9.0864744,-4.207091,3.081557113562833,2.907236196171426,2.798369260384608,7.402872,-6.2153480000000005,-0.948104,-1.101333,-13.939042,-7.881711999999999,0,stairs
1.9402612,-8.2494612,-2.4487894000000003,3.707172877673053,3.35201848222615,3.0923607672086546,7.996633999999999,-5.003881,2.006341,-1.94888,-13.613431,-6.646304,0,stairs
1.5284584000000003,-12.0782688,1.3752293999999998,7.591612711687735,7.708464345699972,6.218373123728608,12.411542,1.249773,10.716447,-6.847417,-17.908628,-4.386177,0,stairs
3.8297652,-9.6074528,-3.3059136,2.8751271160095166,4.0034930659744745,5.034985640999714,8.532935,-3.648763,0.502782,1.101333,-14.571112,-11.492168,0,stairs
-0.7393295999999999,-7.746679,1.3819334,3.0558333647843594,5.387153437457903,1.597830353395597,2.236184,-1.441309,2.652776,-4.094085,-13.733141,-1.173159,0,stairs
5.6819196000000005,-5.585193599999999,-1.4422667999999996,4.409295002269501,4.130164426079341,7.45413342853448,12.650962,1.61848,10.716447,1.996764,-8.571242,-7.881711999999999,0,stairs
1.022803,-7.764875000000001,-2.7504588,1.841966386076712,3.8947098190365854,1.968518849832457,2.767697,-3.86903,-0.948104,-1.101333,-13.939042,-5.928043,0,stairs
3.7474046,-10.732727,-2.2457610000000003,5.418074423987299,3.995716349153741,2.5241720727993173,12.411542,-5.003881,2.006341,-1.94888,-13.881581,-4.386177,0,stairs
0.386903,-11.8905638,-0.2633621999999995,6.035785279973601,7.742042379229927,8.450039599179355,8.532935,1.249773,10.716447,-6.847417,-17.908628,-11.492168,0,stairs
1.2047624,-6.595546799999999,0.1896207999999999,3.012601475095951,2.808247859727788,1.5308355249971173,4.276045,-3.605668,2.475605,-3.77805,-9.346964,-1.273715,0,stairs
0.6560112,-8.188169599999998,-0.0622490000000001,2.9354299789250127,5.025964088037916,3.566966902388008,3.438074,-1.441309,2.652776,-4.094085,-13.733141,-6.210559,0,stairs
4.928224800000001,-7.519708800000001,-0.8781929999999998,5.263488499448982,5.654356702488419,6.994032871830493,12.650962,1.61848,10.716447,-1.101333,-13.939042,-7.881711999999999,0,stairs
1.5476122,-5.31417,-2.788766,1.7214107607018725,1.423760793067958,2.056418676018456,3.677494,-3.744531,-0.507571,-0.737414,-6.8761470000000005,-5.928043,0,stairs
2.7351360000000007,-15.0509096,-1.1741166000000005,6.944487281043,2.134171291412032,3.410131982089008,12.411542,-13.110648,4.13718,-6.847417,-17.908628,-4.386177,0,stairs
2.1739352,-7.4881054,-1.2631805999999997,4.486403033012995,6.313975719882228,8.10340924699014,8.532935,1.249773,10.716447,-4.003105000000001,-14.571112,-11.492168,0,stairs
0.1302446,-6.869443599999999,0.9519346,3.817070050742493,4.443004718193905,1.4530673404103818,4.276045,-1.441309,2.475605,-4.094085,-12.564771,-1.173159,0,stairs
5.0833692,-6.6175734,0.6646308000000001,5.036335958108156,5.485812480266464,6.621258457558896,12.650962,1.61848,10.716447,-0.071826,-13.733141,-6.210559,0,stairs
1.754471,-8.7053174,-4.0270472,1.688133391846302,3.229764628965832,2.8335009565895155,2.920926,-5.865794,-0.948104,-1.101333,-13.939042,-7.881711999999999,0,stairs
0.3524266,-5.3572656,-2.180639,2.075077145816464,2.1533323171564347,1.3880284499906692,3.677494,-3.744531,-0.507571,-1.843535,-8.403648,-4.185065,0,stairs
2.3118411999999995,-4.5595176,-0.80924,3.985756328314327,2.1800213739825582,1.3594597732240925,6.301539,-1.154005,0.23942,-2.8682540000000003,-6.660669,-2.954445,0,stairs
3.884353,-7.0312912,0.3821147999999999,2.705838502962344,1.874538123051436,2.023102989487733,8.073248,-4.932055,2.949657,1.1683709999999998,-9.816227,-1.6998830000000005,0,stairs
3.4725504000000003,-11.2537058,-1.6089033999999998,3.137727802851341,6.376245754955435,3.433023082855298,7.015011,-1.508347,1.1683709999999998,-1.5466540000000002,-16.845604,-7.517792999999999,0,stairs
0.8523358000000002,-9.51743,2.1078552,3.173794035968261,4.482897297679927,4.49133917870697,3.529053,-5.985504,9.792285,-4.582502,-17.3005,-1.599327,0,stairs
1.8109746,-7.6882604,0.2710238,3.479686207645425,1.2785871250846772,3.5579587281962253,5.64074,-5.803545,4.055778,-2.39899,-8.705316999999999,-5.401319,0,stairs
2.2208616,-6.7573948,-0.3418918000000001,2.4524750310226,3.704620459259248,9.07130251703148,4.97994,-0.483629,10.582372,-0.8283940000000001,-10.127473,-14.422671,0,stairs
-0.3438074,-11.598471,1.3158531999999998,4.921322651122846,7.642538135179241,6.288164916592257,4.879383,1.249773,10.716447,-6.847417,-17.908628,-4.683058,0,stairs
2.4641126,-8.032067999999999,-1.874181,4.5003205190920905,4.588243518575545,5.538150888484215,8.532935,-3.605668,2.475605,-3.77805,-14.571112,-11.492168,0,stairs
0.4156332000000001,-8.237969,-0.3552994,2.6895706620659183,5.014195672661718,3.5906887090557293,2.236184,-1.441309,2.652776,-4.094085,-13.733141,-6.210559,0,stairs
5.836106200000001,-6.1598022,-0.6301535999999998,4.259136758082464,4.4038898211576205,7.012899673157587,12.650962,1.61848,10.716447,2.767697,-8.935161,-7.881711999999999,0,stairs
1.2047624,-7.3530722,-2.8768726,2.086177352704534,3.8486172420672338,1.9404125327949724,3.677494,-3.86903,-0.948104,-1.101333,-13.939042,-5.928043,0,stairs
-0.5046976,-5.416641799999999,-1.8962078,1.322035415753035,2.084455790703823,1.4251637102302317,0.665588,-3.744531,-0.507571,-2.011129,-8.403648,-4.185065,0,stairs
0.5841851999999997,-10.1064048,-0.5190627999999998,6.085002946240306,7.000884113858598,8.459235650714886,8.532935,1.249773,10.716447,-6.847417,-16.74026,-11.492168,0,stairs
-0.0517145999999998,-5.086242,0.8705318,3.725581695897609,3.201490016632333,1.473313526345869,4.276045,-1.441309,2.475605,-4.094085,-9.346964,-1.173159,0,stairs
4.0050206,-7.5762118,1.6548724,4.992572173324367,6.120029549222593,6.072913841759391,12.650962,1.61848,10.716447,-0.071826,-13.733141,-6.210559,0,stairs
2.7044902,-9.0864744,-4.207091,3.081557113562833,2.907236196171426,2.798369260384608,7.402872,-6.2153480000000005,-0.948104,-1.101333,-13.939042,-7.881711999999999,0,stairs
1.2516888,-5.75183,-2.4401704,1.847280307372219,1.992699195206718,1.4493470458524762,3.677494,-3.744531,-0.507571,-0.737414,-8.403648,-4.185065,0,stairs
-0.0335185999999999,-6.247908799999999,-1.7573439999999998,1.8804681240077687,2.570961314900752,0.5237232317961462,2.432509,-3.892972,-0.919373,-2.011129,-10.304645,-2.327164,0,stairs
3.8297652,-9.6074528,-3.3059136,2.8751271160095166,4.0034930659744745,5.034985640999714,8.532935,-3.648763,0.502782,1.101333,-14.571112,-11.492168,0,stairs
-0.7393295999999999,-7.746679,1.3819334,3.0558333647843594,5.387153437457903,1.597830353395597,2.236184,-1.441309,2.652776,-4.094085,-13.733141,-1.173159,0,stairs
5.6819196000000005,-5.585193599999999,-1.4422667999999996,4.409295002269501,4.130164426079341,7.45413342853448,12.650962,1.61848,10.716447,1.996764,-8.571242,-7.881711999999999,0,stairs
1.022803,-7.764875000000001,-2.7504588,1.841966386076712,3.8947098190365854,1.968518849832457,2.767697,-3.86903,-0.948104,-1.101333,-13.939042,-5.928043,0,stairs
0.633027,-5.945281400000001,-2.2687456,1.9837096089775843,2.043988223070843,1.3473098918633382,3.677494,-3.744531,-0.507571,-1.843535,-8.403648,-4.185065,0,stairs
0.1312025999999999,-7.361691200000001,-1.996764,1.966117962377207,2.320596903562142,0.8964998754397573,2.432509,-4.232949,-0.919373,-2.011129,-10.304645,-3.3279400000000003,0,stairs
1.2047624,-6.595546799999999,0.1896207999999999,3.012601475095951,2.808247859727788,1.5308355249971173,4.276045,-3.605668,2.475605,-3.77805,-9.346964,-1.273715,0,stairs
0.6560112,-8.188169599999998,-0.0622490000000001,2.9354299789250127,5.025964088037916,3.566966902388008,3.438074,-1.441309,2.652776,-4.094085,-13.733141,-6.210559,0,stairs
4.928224800000001,-7.519708800000001,-0.8781929999999998,5.263488499448982,5.654356702488419,6.994032871830493,12.650962,1.61848,10.716447,-1.101333,-13.939042,-7.881711999999999,0,stairs
1.5476122,-5.31417,-2.788766,1.7214107607018725,1.423760793067958,2.056418676018456,3.677494,-3.744531,-0.507571,-0.737414,-6.8761470000000005,-5.928043,0,stairs
-0.1407789999999999,-6.7286646,-2.1289242,1.851151619740398,2.7326464000456228,1.2222846733037274,2.432509,-3.892972,-0.919373,-2.011129,-10.304645,-4.185065,0,stairs
0.0699109999999999,-11.0966456,-1.0907981999999996,1.317331499789442,6.266173370369855,3.7851856940593023,1.431733,-5.999869,5.544971,-1.7860740000000002,-21.74414,-3.605668,0,stairs
0.1302446,-6.869443599999999,0.9519346,3.817070050742493,4.443004718193905,1.4530673404103818,4.276045,-1.441309,2.475605,-4.094085,-12.564771,-1.173159,0,stairs
5.0833692,-6.6175734,0.6646308000000001,5.036335958108156,5.485812480266464,6.621258457558896,12.650962,1.61848,10.716447,-0.071826,-13.733141,-6.210559,0,stairs
1.754471,-8.7053174,-4.0270472,1.688133391846302,3.229764628965832,2.8335009565895155,2.920926,-5.865794,-0.948104,-1.101333,-13.939042,-7.881711999999999,0,stairs
0.3524266,-5.3572656,-2.180639,2.075077145816464,2.1533323171564347,1.3880284499906692,3.677494,-3.744531,-0.507571,-1.843535,-8.403648,-4.185065,0,stairs
0.621535,-7.124186399999999,-1.7190366,1.6484817446900952,2.300045287790178,0.5148926554742259,2.432509,-4.232949,-0.919373,-2.011129,-10.304645,-2.327164,0,stairs
1.1348518,-14.351802400000002,-2.645114,3.281681106647735,5.329460363948709,4.829953542605508,6.670246000000001,-7.996633,5.544971,-1.7860740000000002,-21.74414,-7.225700999999999,0,stairs
0.4156332000000001,-8.237969,-0.3552994,2.6895706620659183,5.014195672661718,3.5906887090557293,2.236184,-1.441309,2.652776,-4.094085,-13.733141,-6.210559,0,stairs
5.836106200000001,-6.1598022,-0.6301535999999998,4.259136758082464,4.4038898211576205,7.012899673157587,12.650962,1.61848,10.716447,2.767697,-8.935161,-7.881711999999999,0,stairs
1.2047624,-7.3530722,-2.8768726,2.086177352704534,3.8486172420672338,1.9404125327949724,3.677494,-3.86903,-0.948104,-1.101333,-13.939042,-5.928043,0,stairs
-0.5046976,-5.416641799999999,-1.8962078,1.322035415753035,2.084455790703823,1.4251637102302317,0.665588,-3.744531,-0.507571,-2.011129,-8.403648,-4.185065,0,stairs
0.7105993999999998,-8.808746600000001,-0.7038951999999998,1.5623613273779853,2.12987286072979,3.555780325045784,2.432509,-5.999869,5.544971,-1.7860740000000002,-11.468226,-3.3279400000000003,0,stairs
3.6439752,-13.4075294,-1.8004396,3.693017217505112,6.340686075065718,8.198857025176332,7.771578999999999,-6.162675,12.650962,-0.770933,-21.74414,-7.225700999999999,0,stairs
4.0050206,-7.5762118,1.6548724,4.992572173324367,6.120029549222593,6.072913841759391,12.650962,1.61848,10.716447,-0.071826,-13.733141,-6.210559,0,stairs
2.7044902,-9.0864744,-4.207091,3.081557113562833,2.907236196171426,2.798369260384608,7.402872,-6.2153480000000005,-0.948104,-1.101333,-13.939042,-7.881711999999999,0,stairs
1.2516888,-5.75183,-2.4401704,1.847280307372219,1.992699195206718,1.4493470458524762,3.677494,-3.744531,-0.507571,-0.737414,-8.403648,-4.185065,0,stairs
-0.0335185999999999,-6.247908799999999,-1.7573439999999998,1.8804681240077687,2.570961314900752,0.5237232317961462,2.432509,-3.892972,-0.919373,-2.011129,-10.304645,-2.327164,0,stairs
1.2861654000000002,-12.537955,-1.5476118,3.2726163465952287,5.593452653055535,4.096705486640845,6.670246000000001,-7.996633,5.544971,-1.7860740000000002,-21.74414,-4.611232,0,stairs
4.0931274,-14.0616254,-1.2363655999999996,2.588751929597504,7.817499091231435,8.857071814774045,7.771578999999999,-6.162675,12.650962,0.675165,-25.828648,-7.991845,0,stairs
5.6819196000000005,-5.585193599999999,-1.4422667999999996,4.409295002269501,4.130164426079341,7.45413342853448,12.650962,1.61848,10.716447,1.996764,-8.571242,-7.881711999999999,0,stairs
1.022803,-7.764875000000001,-2.7504588,1.841966386076712,3.8947098190365854,1.968518849832457,2.767697,-3.86903,-0.948104,-1.101333,-13.939042,-5.928043,0,stairs
0.633027,-5.945281400000001,-2.2687456,1.9837096089775843,2.043988223070843,1.3473098918633382,3.677494,-3.744531,-0.507571,-1.843535,-8.403648,-4.185065,0,stairs
0.1312025999999999,-7.361691200000001,-1.996764,1.966117962377207,2.320596903562142,0.8964998754397573,2.432509,-4.232949,-0.919373,-2.011129,-10.304645,-3.3279400000000003,0,stairs
3.0463824,-14.468639600000005,0.5506664000000001,3.883372174005062,5.158982645044011,8.302897577371548,7.771578999999999,-8.580819,12.650962,-0.770933,-21.74414,-7.225700999999999,0,stairs
4.860229800000001,-15.766296400000002,-3.5721486,1.6315286737146852,7.416764061212094,5.902532303641616,7.484275,-6.162675,2.973599,3.193865,-25.828648,-9.227253,0,stairs
4.928224800000001,-7.519708800000001,-0.8781929999999998,5.263488499448982,5.654356702488419,6.994032871830493,12.650962,1.61848,10.716447,-1.101333,-13.939042,-7.881711999999999,0,stairs
1.5476122,-5.31417,-2.788766,1.7214107607018725,1.423760793067958,2.056418676018456,3.677494,-3.744531,-0.507571,-0.737414,-6.8761470000000005,-5.928043,0,stairs
-0.1407789999999999,-6.7286646,-2.1289242,1.851151619740398,2.7326464000456228,1.2222846733037274,2.432509,-3.892972,-0.919373,-2.011129,-10.304645,-4.185065,0,stairs
0.0699109999999999,-11.0966456,-1.0907981999999996,1.317331499789442,6.266173370369855,3.7851856940593023,1.431733,-5.999869,5.544971,-1.7860740000000002,-21.74414,-3.605668,0,stairs
4.4369348,-11.537179,-0.5602429999999996,2.83375920010473,4.326013819967234,8.325538976113348,7.771578999999999,-6.162675,12.650962,0.675165,-17.343597,-7.225700999999999,0,stairs
4.129519400000001,-15.3640704,-2.1030666,3.084666225523728,7.576666318443575,8.29613123963868,7.484275,-7.354986999999999,10.007763,-0.933739,-25.828648,-9.227253,0,stairs
1.754471,-8.7053174,-4.0270472,1.688133391846302,3.229764628965832,2.8335009565895155,2.920926,-5.865794,-0.948104,-1.101333,-13.939042,-7.881711999999999,0,stairs
0.3524266,-5.3572656,-2.180639,2.075077145816464,2.1533323171564347,1.3880284499906692,3.677494,-3.744531,-0.507571,-1.843535,-8.403648,-4.185065,0,stairs
0.621535,-7.124186399999999,-1.7190366,1.6484817446900952,2.300045287790178,0.5148926554742259,2.432509,-4.232949,-0.919373,-2.011129,-10.304645,-2.327164,0,stairs
1.1348518,-14.351802400000002,-2.645114,3.281681106647735,5.329460363948709,4.829953542605508,6.670246000000001,-7.996633,5.544971,-1.7860740000000002,-21.74414,-7.225700999999999,0,stairs
5.4549494,-13.5703352,0.8034943999999999,2.082736510623175,7.634731241837443,8.289110383958873,7.771578999999999,-6.162675,12.650962,3.193865,-25.828648,-7.991845,0,stairs
3.1546004,-10.935754800000002,0.9710884000000004,2.495188973649852,5.834689170908611,9.038385982129984,5.061342,-4.788403,10.333375,-0.933739,-19.560625,-9.227253,0,stairs
1.1923124,-5.707776600000001,0.0632069999999999,3.027083688309972,1.541891953332755,2.090425954107081,4.563349,-3.730166000000001,2.949657,-2.8682540000000003,-7.718906,-2.954445,0,stairs
4.9129022,-11.2355098,-1.4997276,2.7758388625618564,5.316591187806686,3.708962919211218,8.073248,-5.856217,1.910573,1.1683709999999998,-16.845604,-7.517792999999999,0,stairs
2.585738,-7.807012599999998,0.2068589999999999,2.4496836526654824,3.8904997599380207,1.2549429021555123,4.697424,-1.508347,1.905785,-1.5466540000000002,-12.014104,-1.158794,0,stairs
1.0496181999999998,-9.3536666,0.4070143999999999,3.395458304133581,4.557691316779999,5.63646339421022,4.458004,-5.985504,9.792285,-4.582502,-17.3005,-5.401319,0,stairs
1.1568786,-6.139691,3.224511000000001,3.639943840465509,3.350721636357831,4.588473372362424,5.64074,-0.483629,10.582372,-2.39899,-8.566454,-1.58975,0,stairs
3.5759796,-8.8336462,-1.5859192,3.0515139262835254,1.6048490523652683,7.872775519402937,8.288725999999999,-7.115567,5.93762,1.106121,-10.783484,-14.422671,0,stairs
1.2047624,-7.3530722,-2.8768726,2.086177352704534,3.8486172420672338,1.9404125327949724,3.677494,-3.86903,-0.948104,-1.101333,-13.939042,-5.928043,0,stairs
-0.5046976,-5.416641799999999,-1.8962078,1.322035415753035,2.084455790703823,1.4251637102302317,0.665588,-3.744531,-0.507571,-2.011129,-8.403648,-4.185065,0,stairs
0.7105993999999998,-8.808746600000001,-0.7038951999999998,1.5623613273779853,2.12987286072979,3.555780325045784,2.432509,-5.999869,5.544971,-1.7860740000000002,-11.468226,-3.3279400000000003,0,stairs
3.6439752,-13.4075294,-1.8004396,3.693017217505112,6.340686075065718,8.198857025176332,7.771578999999999,-6.162675,12.650962,-0.770933,-21.74414,-7.225700999999999,0,stairs
3.8987182,-16.3715506,-0.3284841999999998,3.1073336100649382,6.504496283639173,8.127200414472084,7.484275,-9.188946,10.007763,-0.933739,-25.828648,-9.227253,0,stairs
4.085465999999999,-10.3774274,0.7910444000000002,1.5111541811876774,5.476287435773007,9.559304809533812,5.923255,-4.788403,10.486604,2.499547,-18.195932,-10.606314,0,stairs
1.2516888,-5.75183,-2.4401704,1.847280307372219,1.992699195206718,1.4493470458524762,3.677494,-3.744531,-0.507571,-0.737414,-8.403648,-4.185065,0,stairs
-0.0335185999999999,-6.247908799999999,-1.7573439999999998,1.8804681240077687,2.570961314900752,0.5237232317961462,2.432509,-3.892972,-0.919373,-2.011129,-10.304645,-2.327164,0,stairs
1.2861654000000002,-12.537955,-1.5476118,3.2726163465952287,5.593452653055535,4.096705486640845,6.670246000000001,-7.996633,5.544971,-1.7860740000000002,-21.74414,-4.611232,0,stairs
4.0931274,-14.0616254,-1.2363655999999996,2.588751929597504,7.817499091231435,8.857071814774045,7.771578999999999,-6.162675,12.650962,0.675165,-25.828648,-7.991845,0,stairs
4.151546000000001,-12.9555034,1.5619774000000004,3.092384055835077,4.837381190038088,9.057149181688729,7.484275,-7.354986999999999,10.333375,-0.933739,-19.560625,-9.227253,0,stairs
1.2459428,-13.2150358,-8.8326886,4.529937457899634,6.754472760612646,18.157019393496327,5.923255,-4.788403,10.486604,-6.287173,-20.60929,-38.08696,0,stairs
0.633027,-5.945281400000001,-2.2687456,1.9837096089775843,2.043988223070843,1.3473098918633382,3.677494,-3.744531,-0.507571,-1.843535,-8.403648,-4.185065,0,stairs
0.1312025999999999,-7.361691200000001,-1.996764,1.966117962377207,2.320596903562142,0.8964998754397573,2.432509,-4.232949,-0.919373,-2.011129,-10.304645,-3.3279400000000003,0,stairs
3.0463824,-14.468639600000005,0.5506664000000001,3.883372174005062,5.158982645044011,8.302897577371548,7.771578999999999,-8.580819,12.650962,-0.770933,-21.74414,-7.225700999999999,0,stairs
4.860229800000001,-15.766296400000002,-3.5721486,1.6315286737146852,7.416764061212094,5.902532303641616,7.484275,-6.162675,2.973599,3.193865,-25.828648,-9.227253,0,stairs
3.3796552,-10.6628162,4.9138598,2.7210003785154457,5.341434743965679,7.674329334011129,5.923255,-4.788403,10.486604,-0.933739,-18.195932,-6.277597,0,stairs
1.5504852000000002,-14.3719142,-7.739975199999998,4.63545299475129,5.671559037945581,20.047294405846657,5.00867,-7.762002000000001,17.492037,-6.287173,-20.60929,-38.08696,0,stairs
-0.1407789999999999,-6.7286646,-2.1289242,1.851151619740398,2.7326464000456228,1.2222846733037274,2.432509,-3.892972,-0.919373,-2.011129,-10.304645,-4.185065,0,stairs
0.0699109999999999,-11.0966456,-1.0907981999999996,1.317331499789442,6.266173370369855,3.7851856940593023,1.431733,-5.999869,5.544971,-1.7860740000000002,-21.74414,-3.605668,0,stairs
4.4369348,-11.537179,-0.5602429999999996,2.83375920010473,4.326013819967234,8.325538976113348,7.771578999999999,-6.162675,12.650962,0.675165,-17.343597,-7.225700999999999,0,stairs
4.129519400000001,-15.3640704,-2.1030666,3.084666225523728,7.576666318443575,8.29613123963868,7.484275,-7.354986999999999,10.007763,-0.933739,-25.828648,-9.227253,0,stairs
1.9584572,-13.028288,-5.570828199999999,4.848615758677749,6.715270899364113,20.153707188491254,5.923255,-4.788403,10.486604,-6.287173,-20.60929,-38.08696,0,stairs
2.2352268000000004,-11.9528122,2.2457614,2.597979943467848,5.650386377020354,8.961558254408622,5.00867,-4.065354,17.492037,-0.47884,-19.177555,-5.975927,0,stairs
0.621535,-7.124186399999999,-1.7190366,1.6484817446900952,2.300045287790178,0.5148926554742259,2.432509,-4.232949,-0.919373,-2.011129,-10.304645,-2.327164,0,stairs
1.1348518,-14.351802400000002,-2.645114,3.281681106647735,5.329460363948709,4.829953542605508,6.670246000000001,-7.996633,5.544971,-1.7860740000000002,-21.74414,-7.225700999999999,0,stairs
5.4549494,-13.5703352,0.8034943999999999,2.082736510623175,7.634731241837443,8.289110383958873,7.771578999999999,-6.162675,12.650962,3.193865,-25.828648,-7.991845,0,stairs
3.1546004,-10.935754800000002,0.9710884000000004,2.495188973649852,5.834689170908611,9.038385982129984,5.061342,-4.788403,10.333375,-0.933739,-19.560625,-9.227253,0,stairs
1.7334022000000004,-16.0928662,-5.338111999999999,4.820385833483425,5.138714939163896,21.63495519672383,5.923255,-7.762002000000001,17.492037,-6.287173,-20.60929,-38.08696,0,stairs
1.0429144,-8.741709,-1.0620676,2.254942435039374,3.083385186807837,1.7958154336064995,5.00867,-4.065354,1.5370780000000002,-0.47884,-12.210428,-3.270479,0,stairs
0.7105993999999998,-8.808746600000001,-0.7038951999999998,1.5623613273779853,2.12987286072979,3.555780325045784,2.432509,-5.999869,5.544971,-1.7860740000000002,-11.468226,-3.3279400000000003,0,stairs
3.6439752,-13.4075294,-1.8004396,3.693017217505112,6.340686075065718,8.198857025176332,7.771578999999999,-6.162675,12.650962,-0.770933,-21.74414,-7.225700999999999,0,stairs
3.8987182,-16.3715506,-0.3284841999999998,3.1073336100649382,6.504496283639173,8.127200414472084,7.484275,-9.188946,10.007763,-0.933739,-25.828648,-9.227253,0,stairs
4.085465999999999,-10.3774274,0.7910444000000002,1.5111541811876774,5.476287435773007,9.559304809533812,5.923255,-4.788403,10.486604,2.499547,-18.195932,-10.606314,0,stairs
1.0735602000000002,-13.6325846,-5.311296799999999,4.623737461595457,6.864173844333767,20.3465689741838,5.00867,-4.065354,17.492037,-6.287173,-20.60929,-38.08696,0,stairs
0.9279926,-8.174762,-2.0034678,1.560984153182953,3.000862870304723,1.1140660722110247,3.466804,-5.406107,-0.301669,-0.47884,-12.210428,-3.270479,0,stairs
1.2861654000000002,-12.537955,-1.5476118,3.2726163465952287,5.593452653055535,4.096705486640845,6.670246000000001,-7.996633,5.544971,-1.7860740000000002,-21.74414,-4.611232,0,stairs
4.0931274,-14.0616254,-1.2363655999999996,2.588751929597504,7.817499091231435,8.857071814774045,7.771578999999999,-6.162675,12.650962,0.675165,-25.828648,-7.991845,0,stairs
4.151546000000001,-12.9555034,1.5619774000000004,3.092384055835077,4.837381190038088,9.057149181688729,7.484275,-7.354986999999999,10.333375,-0.933739,-19.560625,-9.227253,0,stairs
1.2459428,-13.2150358,-8.8326886,4.529937457899634,6.754472760612646,18.157019393496327,5.923255,-4.788403,10.486604,-6.287173,-20.60929,-38.08696,0,stairs
1.9048270000000005,-11.051634600000002,3.0904356,2.8113400495907643,5.454737547431114,8.155689957820204,5.00867,-4.065354,17.492037,-0.47884,-19.177555,-1.7525560000000002,0,stairs
2.2419306,-6.358999600000001,-2.9084760000000003,2.4108136530135007,0.9628385211232464,0.5735359231347239,5.88016,-5.406107,-2.059013,0.057461,-7.627927000000001,-3.509899,0,stairs
3.0463824,-14.468639600000005,0.5506664000000001,3.883372174005062,5.158982645044011,8.302897577371548,7.771578999999999,-8.580819,12.650962,-0.770933,-21.74414,-7.225700999999999,0,stairs
4.860229800000001,-15.766296400000002,-3.5721486,1.6315286737146852,7.416764061212094,5.902532303641616,7.484275,-6.162675,2.973599,3.193865,-25.828648,-9.227253,0,stairs
3.3796552,-10.6628162,4.9138598,2.7210003785154457,5.341434743965679,7.674329334011129,5.923255,-4.788403,10.486604,-0.933739,-18.195932,-6.277597,0,stairs
1.5504852000000002,-14.3719142,-7.739975199999998,4.63545299475129,5.671559037945581,20.047294405846657,5.00867,-7.762002000000001,17.492037,-6.287173,-20.60929,-38.08696,0,stairs
0.2767698,-7.9066114,-1.1693278,0.6509973358145946,3.34973774143332,1.845534841253803,1.177947,-4.065354,1.5370780000000002,-0.47884,-12.210428,-3.270479,0,stairs
2.9889218,-6.4183756,-2.5292346,2.515376327138089,1.917480907344008,1.0180814255649202,5.88016,-4.089296,-0.833182,0.057461,-9.251195,-3.509899,0,stairs
4.4369348,-11.537179,-0.5602429999999996,2.83375920010473,4.326013819967234,8.325538976113348,7.771578999999999,-6.162675,12.650962,0.675165,-17.343597,-7.225700999999999,0,stairs
4.129519400000001,-15.3640704,-2.1030666,3.084666225523728,7.576666318443575,8.29613123963868,7.484275,-7.354986999999999,10.007763,-0.933739,-25.828648,-9.227253,0,stairs
1.9584572,-13.028288,-5.570828199999999,4.848615758677749,6.715270899364113,20.153707188491254,5.923255,-4.788403,10.486604,-6.287173,-20.60929,-38.08696,0,stairs
2.2352268000000004,-11.9528122,2.2457614,2.597979943467848,5.650386377020354,8.961558254408622,5.00867,-4.065354,17.492037,-0.47884,-19.177555,-5.975927,0,stairs
1.0352528,-7.0217146,-2.5570074,1.4549750561099666,2.0048650897719527,0.6466382988281005,3.466804,-5.406107,-1.7525560000000002,-0.153229,-10.213664,-3.270479,0,stairs
3.1680080000000004,-6.9968148,-1.7372326,3.3268631395004062,2.550128143263236,1.2709416433004703,5.88016,-4.089296,-0.512359,-1.446098,-9.840169,-3.509899,0,stairs
5.4549494,-13.5703352,0.8034943999999999,2.082736510623175,7.634731241837443,8.289110383958873,7.771578999999999,-6.162675,12.650962,3.193865,-25.828648,-7.991845,0,stairs
3.1546004,-10.935754800000002,0.9710884000000004,2.495188973649852,5.834689170908611,9.038385982129984,5.061342,-4.788403,10.333375,-0.933739,-19.560625,-9.227253,0,stairs
1.7334022000000004,-16.0928662,-5.338111999999999,4.820385833483425,5.138714939163896,21.63495519672383,5.923255,-7.762002000000001,17.492037,-6.287173,-20.60929,-38.08696,0,stairs
1.0429144,-8.741709,-1.0620676,2.254942435039374,3.083385186807837,1.7958154336064995,5.00867,-4.065354,1.5370780000000002,-0.47884,-12.210428,-3.270479,0,stairs
3.0712822,-6.6836532,-2.7744008,2.429683575832602,1.576059148349198,0.545422029108836,5.88016,-5.406107,-2.059013,0.057461,-9.251195,-3.509899,0,stairs
1.2038046,-6.411672,-0.2451661999999999,3.1512907947779585,2.396456130089491,0.8801771869264166,5.865794,-4.089296,0.766145,-1.766921,-9.840169,-1.23062,0,stairs
1.6960526000000002,-6.9594652,0.70198,2.889369082891505,1.936669885364101,1.7920616222493582,4.941633,-4.932055,2.949657,-2.8682540000000003,-9.816227,-1.6998830000000005,0,stairs
4.3210554,-10.0221284,-1.6491258000000002,3.768941170251772,6.774894928575594,3.427604920917768,8.073248,-1.508347,1.1683709999999998,-1.5466540000000002,-16.845604,-7.517792999999999,0,stairs
1.2363658000000002,-10.72315,2.1959618,3.4389461855396486,4.088873589602153,4.403904339895418,3.830723,-7.436389999999999,9.792285,-4.582502,-17.3005,-1.158794,0,stairs
1.0649412000000005,-7.1720704,-0.2547429999999998,2.783561211262418,1.3541634801501257,3.6116839201630726,4.458004,-5.803545,4.055778,-2.39899,-8.705316999999999,-5.401319,0,stairs
3.077986,-6.7372836,-0.4319137999999999,2.798717573087092,3.691913245996417,9.050917605134725,5.64074,-0.483629,10.582372,-0.8283940000000001,-10.127473,-14.422671,0,stairs
3.5731066,-10.8811678,1.4709974,3.943136466090705,4.932403245785739,3.6808099185558736,8.288725999999999,-7.474697,5.93762,-0.991199,-19.416977,-3.165135,0,stairs
3.8987182,-16.3715506,-0.3284841999999998,3.1073336100649382,6.504496283639173,8.127200414472084,7.484275,-9.188946,10.007763,-0.933739,-25.828648,-9.227253,0,stairs
4.085465999999999,-10.3774274,0.7910444000000002,1.5111541811876774,5.476287435773007,9.559304809533812,5.923255,-4.788403,10.486604,2.499547,-18.195932,-10.606314,0,stairs
1.0735602000000002,-13.6325846,-5.311296799999999,4.623737461595457,6.864173844333767,20.3465689741838,5.00867,-4.065354,17.492037,-6.287173,-20.60929,-38.08696,0,stairs
0.9279926,-8.174762,-2.0034678,1.560984153182953,3.000862870304723,1.1140660722110247,3.466804,-5.406107,-0.301669,-0.47884,-12.210428,-3.270479,0,stairs
3.4687198,-7.305187999999999,-2.2486342000000006,2.837492904067903,2.3161786043979853,1.164879756023642,5.88016,-4.089296,-0.833182,0.057461,-9.840169,-3.509899,0,stairs
0.1331173999999999,-7.033207,-0.707726,1.7880997341231557,1.8782583762657632,1.8330876046970583,2.600103,-4.903325,0.766145,-1.766921,-9.337387,-3.797204,0,stairs
4.151546000000001,-12.9555034,1.5619774000000004,3.092384055835077,4.837381190038088,9.057149181688729,7.484275,-7.354986999999999,10.333375,-0.933739,-19.560625,-9.227253,0,stairs
1.2459428,-13.2150358,-8.8326886,4.529937457899634,6.754472760612646,18.157019393496327,5.923255,-4.788403,10.486604,-6.287173,-20.60929,-38.08696,0,stairs
1.9048270000000005,-11.051634600000002,3.0904356,2.8113400495907643,5.454737547431114,8.155689957820204,5.00867,-4.065354,17.492037,-0.47884,-19.177555,-1.7525560000000002,0,stairs
2.2419306,-6.358999600000001,-2.9084760000000003,2.4108136530135007,0.9628385211232464,0.5735359231347239,5.88016,-5.406107,-2.059013,0.057461,-7.627927000000001,-3.509899,0,stairs
2.5119966000000007,-7.2027162,-0.9184158,2.961716825978524,2.581732080519336,1.1570975964445265,5.865794,-4.089296,0.5841850000000001,-1.446098,-9.840169,-2.600103,0,stairs
-0.4146758,-8.3634254,0.497994,1.2935007560472085,2.427884855347201,5.099461926209715,0.8475469999999999,-5.295974,9.021352,-1.8579,-11.860875,-3.797204,0,stairs
3.3796552,-10.6628162,4.9138598,2.7210003785154457,5.341434743965679,7.674329334011129,5.923255,-4.788403,10.486604,-0.933739,-18.195932,-6.277597,0,stairs
1.5504852000000002,-14.3719142,-7.739975199999998,4.63545299475129,5.671559037945581,20.047294405846657,5.00867,-7.762002000000001,17.492037,-6.287173,-20.60929,-38.08696,0,stairs
0.2767698,-7.9066114,-1.1693278,0.6509973358145946,3.34973774143332,1.845534841253803,1.177947,-4.065354,1.5370780000000002,-0.47884,-12.210428,-3.270479,0,stairs
2.9889218,-6.4183756,-2.5292346,2.515376327138089,1.917480907344008,1.0180814255649202,5.88016,-4.089296,-0.833182,0.057461,-9.251195,-3.509899,0,stairs
1.1367668,-7.133763399999999,-0.1944092,3.1664575393061405,2.039034720228496,0.844380512997073,5.865794,-4.903325,0.766145,-1.766921,-9.840169,-1.23062,0,stairs
-0.6014234,-9.2626876,-2.7399246,2.803103381178672,1.703496228876307,7.636067323940432,2.499547,-7.623138000000001,9.021352,-4.76925,-11.860875,-12.382812,0,stairs
1.9584572,-13.028288,-5.570828199999999,4.848615758677749,6.715270899364113,20.153707188491254,5.923255,-4.788403,10.486604,-6.287173,-20.60929,-38.08696,0,stairs
2.2352268000000004,-11.9528122,2.2457614,2.597979943467848,5.650386377020354,8.961558254408622,5.00867,-4.065354,17.492037,-0.47884,-19.177555,-5.975927,0,stairs
1.0352528,-7.0217146,-2.5570074,1.4549750561099666,2.0048650897719527,0.6466382988281005,3.466804,-5.406107,-1.7525560000000002,-0.153229,-10.213664,-3.270479,0,stairs
3.1680080000000004,-6.9968148,-1.7372326,3.3268631395004062,2.550128143263236,1.2709416433004703,5.88016,-4.089296,-0.512359,-1.446098,-9.840169,-3.509899,0,stairs
0.0507569999999999,-7.5771696,1.1990162000000002,1.8858363838592944,1.4528904648917274,4.740234752759266,2.600103,-5.295974,9.021352,-1.8579,-9.337387,-3.797204,0,stairs
0.6454769999999999,-9.2511954,-5.7882222,3.18856895463098,1.9354510263368327,3.964385350266949,2.748544,-6.9096660000000005,-2.920926,-4.76925,-11.860875,-12.382812,0,stairs
1.7334022000000004,-16.0928662,-5.338111999999999,4.820385833483425,5.138714939163896,21.63495519672383,5.923255,-7.762002000000001,17.492037,-6.287173,-20.60929,-38.08696,0,stairs
1.0429144,-8.741709,-1.0620676,2.254942435039374,3.083385186807837,1.7958154336064995,5.00867,-4.065354,1.5370780000000002,-0.47884,-12.210428,-3.270479,0,stairs
3.0712822,-6.6836532,-2.7744008,2.429683575832602,1.576059148349198,0.545422029108836,5.88016,-5.406107,-2.059013,0.057461,-9.251195,-3.509899,0,stairs
1.2038046,-6.411672,-0.2451661999999999,3.1512907947779585,2.396456130089491,0.8801771869264166,5.865794,-4.089296,0.766145,-1.766921,-9.840169,-1.23062,0,stairs
0.4386178,-8.8729116,-0.3792415999999999,1.5585373296532554,1.812579768479114,5.40963440705195,2.499547,-7.623138000000001,9.021352,-1.8579,-11.860875,-3.797204,0,stairs
0.1264139999999998,-7.9573688,-3.8814798,3.12763905149819,1.8244426438467995,5.914137692017087,2.748544,-5.717354,2.499547,-4.76925,-9.993398,-12.382812,0,stairs
1.0735602000000002,-13.6325846,-5.311296799999999,4.623737461595457,6.864173844333767,20.3465689741838,5.00867,-4.065354,17.492037,-6.287173,-20.60929,-38.08696,0,stairs
0.9279926,-8.174762,-2.0034678,1.560984153182953,3.000862870304723,1.1140660722110247,3.466804,-5.406107,-0.301669,-0.47884,-12.210428,-3.270479,0,stairs
3.4687198,-7.305187999999999,-2.2486342000000006,2.837492904067903,2.3161786043979853,1.164879756023642,5.88016,-4.089296,-0.833182,0.057461,-9.840169,-3.509899,0,stairs
0.1331173999999999,-7.033207,-0.707726,1.7880997341231557,1.8782583762657632,1.8330876046970583,2.600103,-4.903325,0.766145,-1.766921,-9.337387,-3.797204,0,stairs
-0.2758118000000001,-9.3938898,-3.3059138,3.0930578820302896,1.7356472286345226,7.8362787630858435,2.499547,-7.623138000000001,9.021352,-4.76925,-11.860875,-12.382812,0,stairs
-0.2422929999999999,-9.0960512,-0.6521804,2.190582470086666,4.438199998173888,2.431876153796756,2.748544,-5.717354,2.499547,-2.614468,-16.82645,-3.39019,0,stairs
1.9048270000000005,-11.051634600000002,3.0904356,2.8113400495907643,5.454737547431114,8.155689957820204,5.00867,-4.065354,17.492037,-0.47884,-19.177555,-1.7525560000000002,0,stairs
2.2419306,-6.358999600000001,-2.9084760000000003,2.4108136530135007,0.9628385211232464,0.5735359231347239,5.88016,-5.406107,-2.059013,0.057461,-7.627927000000001,-3.509899,0,stairs
2.5119966000000007,-7.2027162,-0.9184158,2.961716825978524,2.581732080519336,1.1570975964445265,5.865794,-4.089296,0.5841850000000001,-1.446098,-9.840169,-2.600103,0,stairs
-0.4146758,-8.3634254,0.497994,1.2935007560472085,2.427884855347201,5.099461926209715,0.8475469999999999,-5.295974,9.021352,-1.8579,-11.860875,-3.797204,0,stairs
0.8437169999999998,-8.382579,-5.1053958,3.1904290673256632,1.360667732706813,4.789809445379346,2.748544,-6.9096660000000005,0.493206,-4.76925,-9.993398,-12.382812,0,stairs
-0.0948104000000001,-11.8800292,-1.2928688000000002,2.698672939834837,4.6549267415809785,3.0910599784975386,4.31914,-5.717354,2.499547,-2.614468,-16.82645,-5.688623000000001,0,stairs
0.2767698,-7.9066114,-1.1693278,0.6509973358145946,3.34973774143332,1.845534841253803,1.177947,-4.065354,1.5370780000000002,-0.47884,-12.210428,-3.270479,0,stairs
2.9889218,-6.4183756,-2.5292346,2.515376327138089,1.917480907344008,1.0180814255649202,5.88016,-4.089296,-0.833182,0.057461,-9.251195,-3.509899,0,stairs
1.1367668,-7.133763399999999,-0.1944092,3.1664575393061405,2.039034720228496,0.844380512997073,5.865794,-4.903325,0.766145,-1.766921,-9.840169,-1.23062,0,stairs
-0.6014234,-9.2626876,-2.7399246,2.803103381178672,1.703496228876307,7.636067323940432,2.499547,-7.623138000000001,9.021352,-4.76925,-11.860875,-12.382812,0,stairs
0.5573704,-7.729440799999999,-1.4192826,2.331565739441481,1.6200711898440443,3.5998901442685445,2.748544,-5.717354,2.499547,-2.614468,-9.993398,-6.62715,0,stairs
2.2218192,-13.8787086,-7.0724718,2.740830724383613,2.691341948788708,8.921187952389143,5.061342,-9.710882000000002,-0.411803,-1.522712,-16.82645,-22.663513,0,stairs
1.0352528,-7.0217146,-2.5570074,1.4549750561099666,2.0048650897719527,0.6466382988281005,3.466804,-5.406107,-1.7525560000000002,-0.153229,-10.213664,-3.270479,0,stairs
3.1680080000000004,-6.9968148,-1.7372326,3.3268631395004062,2.550128143263236,1.2709416433004703,5.88016,-4.089296,-0.512359,-1.446098,-9.840169,-3.509899,0,stairs
0.0507569999999999,-7.5771696,1.1990162000000002,1.8858363838592944,1.4528904648917274,4.740234752759266,2.600103,-5.295974,9.021352,-1.8579,-9.337387,-3.797204,0,stairs
0.6454769999999999,-9.2511954,-5.7882222,3.18856895463098,1.9354510263368327,3.964385350266949,2.748544,-6.9096660000000005,-2.920926,-4.76925,-11.860875,-12.382812,0,stairs
