mean_accelerometer_X,mean_accelerometer_Y,mean_accelerometer_Z,std_accelerometer_X,std_accelerometer_Y,std_accelerometer_Z,max_accelerometer_X,max_accelerometer_Y,max_accelerometer_Z,min_accelerometer_X,min_accelerometer_Y,min_accelerometer_Z,time_diff,activity
-1.1473014,-9.932106200000002,-2.6345796,2.5686459202649554,4.567491043499669,5.798240992281047,1.426944,-5.262455,1.235408,-4.352658,-15.897499,-12.804191,0,walking
-0.4941630000000002,-15.4799502,-1.7094599999999995,4.922067980443231,6.865463454129532,8.531478895646785,7.192182000000001,-7.436389999999999,3.438074,-4.577713,-25.201366,-16.903064999999998,0,walking
1.406833,-8.9322876,1.7554286,2.2160285138184705,4.536362906124222,4.295709517086648,3.4189199999999995,-5.305551,9.169792,-1.647211,-15.586253,-1.570596,0,walking
3.0894778,-7.3913792,4.722323599999998,2.345033165758578,5.346738999891961,15.893683438988043,5.60722,0.1819589999999999,32.59945,-0.344765,-13.005303,-7.058106,0,walking
2.9697676,-14.2589078,-1.9469646,7.079221889501791,3.9784551665194994,4.363946353562656,11.113884,-9.174581,3.031059,-7.359775999999999,-19.603724,-8.226476,0,walking
-4.1141964,-6.740156600000001,0.0095769999999999,5.541225152582758,8.897460030666437,2.0512623104319205,3.2896330000000003,6.435614,2.853889,-12.277467,-17.166426,-2.054225,0,walking
-1.969949,-8.9083456,1.2239159999999998,2.480468056319412,4.515433674827292,1.4752038525212372,1.426944,-5.262455,3.438074,-4.352658,-16.49605,-0.651223,0,walking
1.5160087999999998,-13.1135212,-2.2773647999999995,4.340599097493075,8.267865918766203,8.187026043232285,7.192182000000001,-5.425261,1.944092,-4.577713,-25.201366,-16.903064999999998,0,walking
2.764824,-9.0768974,7.803182,2.827564587923501,6.412376896272301,14.539755780276364,5.60722,0.1819589999999999,32.59945,-1.647211,-15.586253,-1.570596,0,walking
-0.4960785999999998,-9.7262048,-0.9452306,4.196867803257484,4.009691851909034,4.016143851568791,3.672706,-4.161122,3.031059,-7.359775999999999,-15.322891,-7.058106,0,walking
4.5815442,-11.9681356,-2.545515,5.123039318154966,6.203249338067131,3.694134964347675,11.113884,-3.0502130000000003,1.273715,-2.978387,-19.603724,-8.226476,0,walking
-4.926309599999999,-12.2314976,-1.3474564,6.035971332064318,11.51270619049339,6.060547455853414,4.13718,6.435614,4.912902,-12.277467,-23.673866,-10.807426,0,walking
-1.6797715999999998,-15.2213764,-1.8847156,5.012076136571781,7.114076963229791,8.455423833453489,7.192182000000001,-7.436389999999999,3.438074,-4.577713,-25.201366,-16.903064999999998,0,walking
1.0419566,-7.9391728000000015,2.234269,1.938690241386514,2.9982652738517324,4.06634052587938,3.4189199999999995,-5.305551,9.169792,-1.647211,-11.669339,-1.570596,0,walking
3.8383841999999992,-9.676405399999998,4.3153092,1.3688201116756358,6.020073568450082,16.03092046584129,5.60722,0.1819589999999999,32.59945,1.939303,-15.586253,-7.058106,0,walking
1.6261416000000004,-12.7428992,-0.0555453999999999,6.9071797283515295,6.071393187057292,2.690425552950462,11.113884,-4.161122,3.031059,-7.359775999999999,-19.603724,-3.921702,0,walking
-0.3840300000000001,-10.375512400000002,-2.2064960000000005,4.914263809004457,5.049486982340514,3.6061845773481287,6.373365,-3.0502130000000003,1.273715,-4.34787,-17.166426,-8.226476,0,walking
-2.7293899999999995,-9.5413726,-0.2039857999999999,7.0567365033033145,11.661634890139153,6.17187722417991,4.13718,6.435614,4.912902,-12.277467,-23.673866,-10.807426,0,walking
0.2911352000000002,-13.2657924,-2.2323537999999994,4.529383288592576,8.125426081881571,8.211223279301063,7.192182000000001,-5.425261,1.944092,-4.577713,-25.201366,-16.903064999999998,0,walking
2.327164,-7.8108436,8.1105976,2.4171978184416347,6.057978746064218,14.338383598143926,4.572925,0.1819589999999999,32.59945,-1.647211,-15.586253,-1.570596,0,walking
2.0973206,-9.262687199999998,-1.1913546,2.596445271003666,3.2659554783205023,3.914873669574511,5.60722,-4.161122,3.031059,-0.387861,-13.005303,-7.058106,0,walking
3.7052664000000006,-14.422671200000002,-2.6297908,6.829812989346362,3.725671907080077,3.588519684780787,11.113884,-9.993398,0.8523360000000001,-7.359775999999999,-19.603724,-8.226476,0,walking
-6.349423,-8.106767000000001,1.0687718,3.783288902066362,9.980866633295127,2.96267037322256,-2.978387,6.435614,4.912902,-12.277467,-17.166426,-2.054225,0,walking
2.7686548,-10.7566692,-1.8435352000000005,2.446539799822128,7.612823842244395,5.097539165456476,6.105214,-3.572149,1.862689,-0.143652,-23.673866,-10.807426,0,walking
2.8098352000000006,-11.9183358,-2.9803024,2.7386472836244726,7.871420424475287,7.879051338917224,7.192182000000001,-5.425261,1.58975,-0.02873,-25.201366,-16.903064999999998,0,walking
3.1210814,-8.9179224,6.705679999999998,2.8021109342842405,6.341498971424011,15.593152394768993,5.60722,0.1819589999999999,32.59945,-1.647211,-15.586253,-7.058106,0,walking
0.9921570000000004,-11.4720568,-0.3179497999999999,6.648177155407751,6.027383456267048,2.917292240881294,11.113884,-4.161122,3.031059,-7.359775999999999,-19.603724,-3.921702,0,walking
1.4891934,-10.0326628,-2.089659,4.853656733913133,4.501598937870932,3.621781170338153,6.373365,-3.0502130000000003,1.273715,-4.34787,-15.452178,-8.226476,0,walking
-3.5520378,-12.260228,-0.9873686,6.918337798820372,11.505692599526029,6.092045452739687,4.13718,6.435614,4.912902,-12.277467,-23.673866,-10.807426,0,walking
1.520797,-10.9280944,1.0046072,3.427241710520867,6.74471119154948,2.942746414785804,6.105214,-3.572149,5.612009,-2.925714,-21.298819,-2.020706,0,walking
1.406833,-8.9322876,1.7554286,2.2160285138184705,4.536362906124222,4.295709517086648,3.4189199999999995,-5.305551,9.169792,-1.647211,-15.586253,-1.570596,0,walking
3.0894778,-7.3913792,4.722323599999998,2.345033165758578,5.346738999891961,15.893683438988043,5.60722,0.1819589999999999,32.59945,-0.344765,-13.005303,-7.058106,0,walking
2.9697676,-14.2589078,-1.9469646,7.079221889501791,3.9784551665194994,4.363946353562656,11.113884,-9.174581,3.031059,-7.359775999999999,-19.603724,-8.226476,0,walking
-4.1141964,-6.740156600000001,0.0095769999999999,5.541225152582758,8.897460030666437,2.0512623104319205,3.2896330000000003,6.435614,2.853889,-12.277467,-17.166426,-2.054225,0,walking
-0.0296879999999999,-12.4211182,-0.9222464,4.6687340991363495,7.901535278538292,5.931330579767097,4.13718,-3.572149,4.912902,-7.8865,-23.673866,-10.807426,0,walking
0.7058107999999998,-14.5998422,0.6847418,4.281257595652439,4.621124388617688,2.905148511812468,6.105214,-8.504205,5.612009,-4.170699,-21.298819,-2.020706,0,walking
2.764824,-9.0768974,7.803182,2.827564587923501,6.412376896272301,14.539755780276364,5.60722,0.1819589999999999,32.59945,-1.647211,-15.586253,-1.570596,0,walking
-0.4960785999999998,-9.7262048,-0.9452306,4.196867803257484,4.009691851909034,4.016143851568791,3.672706,-4.161122,3.031059,-7.359775999999999,-15.322891,-7.058106,0,walking
4.5815442,-11.9681356,-2.545515,5.123039318154966,6.203249338067131,3.694134964347675,11.113884,-3.0502130000000003,1.273715,-2.978387,-19.603724,-8.226476,0,walking
-4.926309599999999,-12.2314976,-1.3474564,6.035971332064318,11.51270619049339,6.060547455853414,4.13718,6.435614,4.912902,-12.277467,-23.673866,-10.807426,0,walking
1.356076,-10.2816598,1.4403517999999995,3.336102083449561,6.613908205392762,2.5126606452839386,6.105214,-3.572149,5.612009,-2.925714,-21.298819,-0.737414,0,walking
0.3016696,-12.144348599999995,-2.1183896000000004,2.772880343634269,3.219271825645405,3.92700280428959,3.347094,-8.571242,0.790087,-4.170699,-15.801731,-8.887277000000001,0,walking
3.8383841999999992,-9.676405399999998,4.3153092,1.3688201116756358,6.020073568450082,16.03092046584129,5.60722,0.1819589999999999,32.59945,1.939303,-15.586253,-7.058106,0,walking
1.6261416000000004,-12.7428992,-0.0555453999999999,6.9071797283515295,6.071393187057292,2.690425552950462,11.113884,-4.161122,3.031059,-7.359775999999999,-19.603724,-3.921702,0,walking
-0.3840300000000001,-10.375512400000002,-2.2064960000000005,4.914263809004457,5.049486982340514,3.6061845773481287,6.373365,-3.0502130000000003,1.273715,-4.34787,-17.166426,-8.226476,0,walking
-2.7293899999999995,-9.5413726,-0.2039857999999999,7.0567365033033145,11.661634890139153,6.17187722417991,4.13718,6.435614,4.912902,-12.277467,-23.673866,-10.807426,0,walking
0.7153875999999999,-13.3740108,0.6646306,4.282617707247204,5.515758833374262,2.9169089070894554,6.105214,-7.963114,5.612009,-4.170699,-21.298819,-2.020706,0,walking
3.344221,-9.7444008,-3.1498118,4.857830574609205,3.1745687901084607,4.905813882681109,11.894394,-5.674258,1.034295,0.0478839999999999,-14.092270999999998,-8.887277000000001,0,walking
2.0973206,-9.262687199999998,-1.1913546,2.596445271003666,3.2659554783205023,3.914873669574511,5.60722,-4.161122,3.031059,-0.387861,-13.005303,-7.058106,0,walking
3.7052664000000006,-14.422671200000002,-2.6297908,6.829812989346362,3.725671907080077,3.588519684780787,11.113884,-9.993398,0.8523360000000001,-7.359775999999999,-19.603724,-8.226476,0,walking
-6.349423,-8.106767000000001,1.0687718,3.783288902066362,9.980866633295127,2.96267037322256,-2.978387,6.435614,4.912902,-12.277467,-17.166426,-2.054225,0,walking
2.7686548,-10.7566692,-1.8435352000000005,2.446539799822128,7.612823842244395,5.097539165456476,6.105214,-3.572149,1.862689,-0.143652,-23.673866,-10.807426,0,walking
-0.29305,-14.689864,-1.1540052000000005,3.1360246474682723,4.474758055495962,5.204206090435668,3.347094,-8.954314,5.612009,-4.170699,-21.298819,-8.887277000000001,0,walking
0.7671019999999998,-11.7708532,-3.7292086,7.637306516071881,4.8751489300396464,7.12764012853457,11.894394,-5.674258,1.824382,-9.323022,-17.334020000000002,-14.245501,0,walking
0.9921570000000004,-11.4720568,-0.3179497999999999,6.648177155407751,6.027383456267048,2.917292240881294,11.113884,-4.161122,3.031059,-7.359775999999999,-19.603724,-3.921702,0,walking
1.4891934,-10.0326628,-2.089659,4.853656733913133,4.501598937870932,3.621781170338153,6.373365,-3.0502130000000003,1.273715,-4.34787,-15.452178,-8.226476,0,walking
-3.5520378,-12.260228,-0.9873686,6.918337798820372,11.505692599526029,6.092045452739687,4.13718,6.435614,4.912902,-12.277467,-23.673866,-10.807426,0,walking
1.520797,-10.9280944,1.0046072,3.427241710520867,6.74471119154948,2.942746414785804,6.105214,-3.572149,5.612009,-2.925714,-21.298819,-2.020706,0,walking
0.1312024,-10.6187632,-1.5073894000000003,2.556618529580293,4.1934257334891125,4.175783638401336,2.494758,-5.674258,1.034295,-4.170699,-15.801731,-8.887277000000001,0,walking
1.1722009999999998,-13.8729622,-7.065768,7.886825083741809,2.977754479540868,5.878911494361988,11.894394,-10.237606,1.824382,-9.323022,-17.334020000000002,-14.245501,0,walking
-1.6692372,-9.3498364,-2.3884556,1.273294981660063,4.950567405137647,4.168575644001353,0.009577,-1.594538,2.011129,-2.992752,-13.637373,-8.944737,0,walking
-6.992984,-9.761639,-7.3166806,4.894739678364979,7.385076859730607,8.486058076153427,-3.007117,1.580173,0.799663,-14.159308,-18.11453,-20.077776,0,walking
-1.64338,-9.085516600000002,0.237505,1.901672654360366,3.555634895116525,2.0626646242254214,1.278504,-3.744531,2.513912,-3.969586,-13.354857,-3.083732,0,walking
-3.5405454,-7.6509108,-1.2631808000000002,2.7947803164084832,4.956644640345342,2.813887431895989,-0.991199,0.292093,2.767697,-7.345411,-12.717999,-5.133168,0,walking
-4.8774676,-8.9313298,1.1310212,4.06009388831623,8.035677643001005,12.98368742362318,0.555455,5.214572,23.582888,-9.155427,-14.686032999999998,-10.065224,0,walking
-3.8489186,-5.457822,-0.4242526000000001,1.3765737841435524,5.413780279010592,2.108337764400026,-2.37026,1.244985,3.055001,-5.473145,-11.808203,-2.5378540000000003,0,walking
2.9697676,-14.2589078,-1.9469646,7.079221889501791,3.9784551665194994,4.363946353562656,11.113884,-9.174581,3.031059,-7.359775999999999,-19.603724,-8.226476,0,walking
-4.1141964,-6.740156600000001,0.0095769999999999,5.541225152582758,8.897460030666437,2.0512623104319205,3.2896330000000003,6.435614,2.853889,-12.277467,-17.166426,-2.054225,0,walking
-0.0296879999999999,-12.4211182,-0.9222464,4.6687340991363495,7.901535278538292,5.931330579767097,4.13718,-3.572149,4.912902,-7.8865,-23.673866,-10.807426,0,walking
0.7058107999999998,-14.5998422,0.6847418,4.281257595652439,4.621124388617688,2.905148511812468,6.105214,-8.504205,5.612009,-4.170699,-21.298819,-2.020706,0,walking
1.2449848,-10.094912,-2.6575638,7.551583335014664,3.808164979734137,5.326447364274118,11.894394,-5.674258,1.824382,-9.323022,-15.844827,-8.887277000000001,0,walking
0.6502652,-11.2268902,-5.493256400000001,3.23647442714873,5.13458396183724,6.527241756528121,5.042189,-3.782838,1.13964,-2.911349,-17.334020000000002,-14.245501,0,walking
4.5815442,-11.9681356,-2.545515,5.123039318154966,6.203249338067131,3.694134964347675,11.113884,-3.0502130000000003,1.273715,-2.978387,-19.603724,-8.226476,0,walking
-4.926309599999999,-12.2314976,-1.3474564,6.035971332064318,11.51270619049339,6.060547455853414,4.13718,6.435614,4.912902,-12.277467,-23.673866,-10.807426,0,walking
1.356076,-10.2816598,1.4403517999999995,3.336102083449561,6.613908205392762,2.5126606452839386,6.105214,-3.572149,5.612009,-2.925714,-21.298819,-0.737414,0,walking
0.3016696,-12.144348599999995,-2.1183896000000004,2.772880343634269,3.219271825645405,3.92700280428959,3.347094,-8.571242,0.790087,-4.170699,-15.801731,-8.887277000000001,0,walking
1.765963,-12.960292600000002,-5.014416,7.843536847640482,4.6180676106489935,6.673939146950734,11.894394,-5.674258,1.824382,-9.323022,-17.334020000000002,-14.245501,0,walking
-2.1538238,-9.4590116,-1.9096152,3.566588215886396,3.709063738849779,4.208608137862172,2.873042,-3.782838,1.13964,-6.631939,-14.073117000000002,-9.222465,0,walking
-0.3840300000000001,-10.375512400000002,-2.2064960000000005,4.914263809004457,5.049486982340514,3.6061845773481287,6.373365,-3.0502130000000003,1.273715,-4.34787,-17.166426,-8.226476,0,walking
-2.7293899999999995,-9.5413726,-0.2039857999999999,7.0567365033033145,11.661634890139153,6.17187722417991,4.13718,6.435614,4.912902,-12.277467,-23.673866,-10.807426,0,walking
0.7153875999999999,-13.3740108,0.6646306,4.282617707247204,5.515758833374262,2.9169089070894554,6.105214,-7.963114,5.612009,-4.170699,-21.298819,-2.020706,0,walking
3.344221,-9.7444008,-3.1498118,4.857830574609205,3.1745687901084607,4.905813882681109,11.894394,-5.674258,1.034295,0.0478839999999999,-14.092270999999998,-8.887277000000001,0,walking
-0.6320694000000001,-13.639288000000002,-5.356308,5.48767980576963,3.2507276589200003,6.705935478577281,5.042189,-10.237606,1.824382,-9.323022,-17.334020000000002,-14.245501,0,walking
-3.1124620000000003,-12.208513,-1.2038044,2.803813904153947,6.904331227299896,2.1477483982371632,1.192313,-3.782838,1.13964,-6.631939,-22.471977,-4.649539,0,walking
-6.349423,-8.106767000000001,1.0687718,3.783288902066362,9.980866633295127,2.96267037322256,-2.978387,6.435614,4.912902,-12.277467,-17.166426,-2.054225,0,walking
2.7686548,-10.7566692,-1.8435352000000005,2.446539799822128,7.612823842244395,5.097539165456476,6.105214,-3.572149,1.862689,-0.143652,-23.673866,-10.807426,0,walking
-0.29305,-14.689864,-1.1540052000000005,3.1360246474682723,4.474758055495962,5.204206090435668,3.347094,-8.954314,5.612009,-4.170699,-21.298819,-8.887277000000001,0,walking
0.7671019999999998,-11.7708532,-3.7292086,7.637306516071881,4.8751489300396464,7.12764012853457,11.894394,-5.674258,1.824382,-9.323022,-17.334020000000002,-14.245501,0,walking
0.1810017999999997,-9.548075999999998,-2.9458256,3.7200214235947215,3.850220445384459,4.3946057495722295,5.042189,-3.782838,1.13964,-3.624821,-14.518439,-9.222465,0,walking
-1.0553642,-15.7366086,-3.6899436,4.150611703363095,4.674386013549726,4.79850198342392,4.017469999999999,-11.774684,-0.4548979999999999,-6.631939,-22.471977,-11.69807,0,walking
-3.5520378,-12.260228,-0.9873686,6.918337798820372,11.505692599526029,6.092045452739687,4.13718,6.435614,4.912902,-12.277467,-23.673866,-10.807426,0,walking
1.520797,-10.9280944,1.0046072,3.427241710520867,6.74471119154948,2.942746414785804,6.105214,-3.572149,5.612009,-2.925714,-21.298819,-2.020706,0,walking
0.1312024,-10.6187632,-1.5073894000000003,2.556618529580293,4.1934257334891125,4.175783638401336,2.494758,-5.674258,1.034295,-4.170699,-15.801731,-8.887277000000001,0,walking
1.1722009999999998,-13.8729622,-7.065768,7.886825083741809,2.977754479540868,5.878911494361988,11.894394,-10.237606,1.824382,-9.323022,-17.334020000000002,-14.245501,0,walking
-2.7763162,-11.905885800000002,-0.99503,3.4704354905260377,6.961029158539684,2.274676329968178,2.873042,-3.782838,1.13964,-6.631939,-22.471977,-4.649539,0,walking
-0.6809110000000003,-10.7413462,-2.6010608,3.739662337483225,5.592241168153222,5.269876229663719,4.017469999999999,-3.284845,1.972822,-5.875371,-18.569427,-11.69807,0,walking
-0.0296879999999999,-12.4211182,-0.9222464,4.6687340991363495,7.901535278538292,5.931330579767097,4.13718,-3.572149,4.912902,-7.8865,-23.673866,-10.807426,0,walking
0.7058107999999998,-14.5998422,0.6847418,4.281257595652439,4.621124388617688,2.905148511812468,6.105214,-8.504205,5.612009,-4.170699,-21.298819,-2.020706,0,walking
1.2449848,-10.094912,-2.6575638,7.551583335014664,3.808164979734137,5.326447364274118,11.894394,-5.674258,1.824382,-9.323022,-15.844827,-8.887277000000001,0,walking
0.6502652,-11.2268902,-5.493256400000001,3.23647442714873,5.13458396183724,6.527241756528121,5.042189,-3.782838,1.13964,-2.911349,-17.334020000000002,-14.245501,0,walking
-2.5838224,-15.1658308,-3.7713464,3.086172756385293,5.394899064020123,4.746783435842454,1.192313,-8.939949,-0.4548979999999999,-6.631939,-22.471977,-11.69807,0,walking
-3.3039984,-11.2326368,-2.9735984,4.377223909126,6.011365602219948,7.658036502302682,4.017469999999999,-3.284845,2.207454,-6.363788,-19.479225,-16.31409,0,walking
1.356076,-10.2816598,1.4403517999999995,3.336102083449561,6.613908205392762,2.5126606452839386,6.105214,-3.572149,5.612009,-2.925714,-21.298819,-0.737414,0,walking
0.3016696,-12.144348599999995,-2.1183896000000004,2.772880343634269,3.219271825645405,3.92700280428959,3.347094,-8.571242,0.790087,-4.170699,-15.801731,-8.887277000000001,0,walking
1.765963,-12.960292600000002,-5.014416,7.843536847640482,4.6180676106489935,6.673939146950734,11.894394,-5.674258,1.824382,-9.323022,-17.334020000000002,-14.245501,0,walking
-2.1538238,-9.4590116,-1.9096152,3.566588215886396,3.709063738849779,4.208608137862172,2.873042,-3.782838,1.13964,-6.631939,-14.073117000000002,-9.222465,0,walking
-0.2231396000000002,-13.578954200000002,-3.2043996,3.014657460735846,7.3552938131745424,5.303892779517635,4.017469999999999,-3.284845,1.972822,-3.586514,-22.471977,-11.69807,0,walking
-3.783796400000001,-11.3590504,-2.9180528000000003,3.3727349742919763,5.574249283789864,7.614419987828141,1.541866,-4.654328,2.207454,-6.363788,-19.479225,-16.31409,0,walking
0.7153875999999999,-13.3740108,0.6646306,4.282617707247204,5.515758833374262,2.9169089070894554,6.105214,-7.963114,5.612009,-4.170699,-21.298819,-2.020706,0,walking
3.344221,-9.7444008,-3.1498118,4.857830574609205,3.1745687901084607,4.905813882681109,11.894394,-5.674258,1.034295,0.0478839999999999,-14.092270999999998,-8.887277000000001,0,walking
-0.6320694000000001,-13.639288000000002,-5.356308,5.48767980576963,3.2507276589200003,6.705935478577281,5.042189,-10.237606,1.824382,-9.323022,-17.334020000000002,-14.245501,0,walking
-3.1124620000000003,-12.208513,-1.2038044,2.803813904153947,6.904331227299896,2.1477483982371632,1.192313,-3.782838,1.13964,-6.631939,-22.471977,-4.649539,0,walking
-2.1921312,-11.0506772,-2.0503944,4.280989604404418,5.705321915380605,5.667191824966251,4.017469999999999,-3.284845,2.207454,-6.363788,-18.569427,-11.69807,0,walking
-1.7104176000000002,-9.8114384,-3.1555577999999995,3.007783396877059,6.328482316026316,7.388705641405279,1.541866,-3.615245,0.842759,-5.8274870000000005,-19.479225,-16.31409,0,walking
-0.29305,-14.689864,-1.1540052000000005,3.1360246474682723,4.474758055495962,5.204206090435668,3.347094,-8.954314,5.612009,-4.170699,-21.298819,-8.887277000000001,0,walking
0.7671019999999998,-11.7708532,-3.7292086,7.637306516071881,4.8751489300396464,7.12764012853457,11.894394,-5.674258,1.824382,-9.323022,-17.334020000000002,-14.245501,0,walking
0.1810017999999997,-9.548075999999998,-2.9458256,3.7200214235947215,3.850220445384459,4.3946057495722295,5.042189,-3.782838,1.13964,-3.624821,-14.518439,-9.222465,0,walking
-1.0553642,-15.7366086,-3.6899436,4.150611703363095,4.674386013549726,4.79850198342392,4.017469999999999,-11.774684,-0.4548979999999999,-6.631939,-22.471977,-11.69807,0,walking
-3.7991192000000007,-11.0851538,-2.58478,3.3650087600377354,6.003195273231515,7.824407319695307,1.541866,-3.284845,2.207454,-6.363788,-19.479225,-16.31409,0,walking
-2.3338678,-8.2188156,-0.7651868000000001,1.9831698984542905,4.32496171302051,1.1233239120038798,0.933739,-3.615245,0.407014,-4.43885,-14.283808,-2.2505490000000004,0,walking
0.1312024,-10.6187632,-1.5073894000000003,2.556618529580293,4.1934257334891125,4.175783638401336,2.494758,-5.674258,1.034295,-4.170699,-15.801731,-8.887277000000001,0,walking
1.1722009999999998,-13.8729622,-7.065768,7.886825083741809,2.977754479540868,5.878911494361988,11.894394,-10.237606,1.824382,-9.323022,-17.334020000000002,-14.245501,0,walking
-2.7763162,-11.905885800000002,-0.99503,3.4704354905260377,6.961029158539684,2.274676329968178,2.873042,-3.782838,1.13964,-6.631939,-22.471977,-4.649539,0,walking
-0.6809110000000003,-10.7413462,-2.6010608,3.739662337483225,5.592241168153222,5.269876229663719,4.017469999999999,-3.284845,1.972822,-5.875371,-18.569427,-11.69807,0,walking
-2.4219744000000003,-11.7526572,-2.7954698,3.677941848769404,5.368512157044557,7.645154431393142,1.541866,-4.654328,2.207454,-6.363788,-19.479225,-16.31409,0,walking
-3.0607474,-7.390422000000001,2.9975404,1.1682203640759736,6.566056124254689,8.919797704403127,-1.331176,1.7525560000000002,18.86152,-4.43885,-14.283808,-2.2505490000000004,0,walking
-3.9504326,-5.974012,-2.6135106,3.627026899451367,5.7441929618872924,5.23580573200561,-0.670376,1.580173,2.011129,-9.993398,-11.573571,-11.587936,0,walking
-4.888959600000001,-10.214622,-3.9178718,5.231504043366812,5.5446914175906565,9.3217238901161,-1.517924,-3.744531,2.513912,-14.159308,-18.11453,-20.077776,0,walking
-1.3905522,-10.501926400000002,-1.6979676,1.87452875346024,1.7585322838437745,2.427738522287419,1.278504,-8.872911,0.8619129999999999,-3.969586,-13.354857,-5.133168,0,walking
-4.7395616,-8.288726,4.437892400000001,3.9416738955410553,5.350424394733515,10.85724965290892,0.555455,0.292093,23.582888,-9.155427,-12.717999,-1.838747,0,walking
-4.350743400000001,-6.467217199999999,-2.9937098,2.48297648742035,8.31617188316245,4.726115730022986,-1.848324,5.214572,3.055001,-7.278372999999999,-14.686032999999998,-10.065224,0,walking
-4.159206999999999,-4.495353200000001,-0.6426035999999999,1.1639543999867432,9.069542903756462,2.2150687485733487,-2.743755,8.073248,2.9257150000000003,-5.473145,-13.469779,-2.5378540000000003,0,walking
1.2449848,-10.094912,-2.6575638,7.551583335014664,3.808164979734137,5.326447364274118,11.894394,-5.674258,1.824382,-9.323022,-15.844827,-8.887277000000001,0,walking
0.6502652,-11.2268902,-5.493256400000001,3.23647442714873,5.13458396183724,6.527241756528121,5.042189,-3.782838,1.13964,-2.911349,-17.334020000000002,-14.245501,0,walking
-2.5838224,-15.1658308,-3.7713464,3.086172756385293,5.394899064020123,4.746783435842454,1.192313,-8.939949,-0.4548979999999999,-6.631939,-22.471977,-11.69807,0,walking
-3.3039984,-11.2326368,-2.9735984,4.377223909126,6.011365602219948,7.658036502302682,4.017469999999999,-3.284845,2.207454,-6.363788,-19.479225,-16.31409,0,walking
-1.1377246,-7.5733386,-0.1465251999999999,2.189087768692429,3.3168454679561576,0.9371371830066824,1.541866,-3.615245,0.842759,-2.964022,-11.056423,-1.268927,0,walking
-2.425805,-8.0464332,2.1183898,1.5839327740849676,6.276401512817811,9.476733939736263,-0.8236049999999999,1.7525560000000002,18.86152,-4.43885,-14.283808,-4.424484,0,walking
1.765963,-12.960292600000002,-5.014416,7.843536847640482,4.6180676106489935,6.673939146950734,11.894394,-5.674258,1.824382,-9.323022,-17.334020000000002,-14.245501,0,walking
-2.1538238,-9.4590116,-1.9096152,3.566588215886396,3.709063738849779,4.208608137862172,2.873042,-3.782838,1.13964,-6.631939,-14.073117000000002,-9.222465,0,walking
-0.2231396000000002,-13.578954200000002,-3.2043996,3.014657460735846,7.3552938131745424,5.303892779517635,4.017469999999999,-3.284845,1.972822,-3.586514,-22.471977,-11.69807,0,walking
-3.783796400000001,-11.3590504,-2.9180528000000003,3.3727349742919763,5.574249283789864,7.614419987828141,1.541866,-4.654328,2.207454,-6.363788,-19.479225,-16.31409,0,walking
-2.6077644,-6.9374388,2.9458256,2.085515023729702,6.191409825177437,8.947744946579407,0.933739,1.7525560000000002,18.86152,-4.43885,-14.283808,-2.2505490000000004,0,walking
-1.6979678,-7.993760800000001,-1.3292604,0.7002672043760867,3.214111586657144,1.9041191034703684,-0.8236049999999999,-3.74932,0.756568,-2.715025,-12.516887,-4.424484,0,walking
-0.6320694000000001,-13.639288000000002,-5.356308,5.48767980576963,3.2507276589200003,6.705935478577281,5.042189,-10.237606,1.824382,-9.323022,-17.334020000000002,-14.245501,0,walking
-3.1124620000000003,-12.208513,-1.2038044,2.803813904153947,6.904331227299896,2.1477483982371632,1.192313,-3.782838,1.13964,-6.631939,-22.471977,-4.649539,0,walking
-2.1921312,-11.0506772,-2.0503944,4.280989604404418,5.705321915380605,5.667191824966251,4.017469999999999,-3.284845,2.207454,-6.363788,-18.569427,-11.69807,0,walking
-1.7104176000000002,-9.8114384,-3.1555577999999995,3.007783396877059,6.328482316026316,7.388705641405279,1.541866,-3.615245,0.842759,-5.8274870000000005,-19.479225,-16.31409,0,walking
-2.8538884,-7.973649400000001,2.0312408,1.3078348370105073,6.269720676536698,9.51259834285826,-1.331176,1.7525560000000002,18.86152,-4.43885,-14.283808,-4.424484,0,walking
-1.2047621999999998,-10.5986522,3.9695866,3.4078612432701387,5.955039883785011,7.616556221504887,4.266468,-3.74932,17.00362,-4.903325,-19.756952,-1.383848,0,walking
0.1810017999999997,-9.548075999999998,-2.9458256,3.7200214235947215,3.850220445384459,4.3946057495722295,5.042189,-3.782838,1.13964,-3.624821,-14.518439,-9.222465,0,walking
-1.0553642,-15.7366086,-3.6899436,4.150611703363095,4.674386013549726,4.79850198342392,4.017469999999999,-11.774684,-0.4548979999999999,-6.631939,-22.471977,-11.69807,0,walking
-3.7991192000000007,-11.0851538,-2.58478,3.3650087600377354,6.003195273231515,7.824407319695307,1.541866,-3.284845,2.207454,-6.363788,-19.479225,-16.31409,0,walking
-2.3338678,-8.2188156,-0.7651868000000001,1.9831698984542905,4.32496171302051,1.1233239120038798,0.933739,-3.615245,0.407014,-4.43885,-14.283808,-2.2505490000000004,0,walking
-1.9076998,-5.9395356,2.7198132,1.1151615660166467,5.360459723146822,9.222151680934726,-0.8236049999999999,1.7525560000000002,18.86152,-3.763685,-12.516887,-4.424484,0,walking
-1.4767434000000002,-12.1749948,2.2792802,3.448087252005421,4.452595076988777,9.071129085351322,4.266468,-8.51857,17.00362,-4.903325,-19.756952,-6.4068830000000005,0,walking
-2.7763162,-11.905885800000002,-0.99503,3.4704354905260377,6.961029158539684,2.274676329968178,2.873042,-3.782838,1.13964,-6.631939,-22.471977,-4.649539,0,walking
-0.6809110000000003,-10.7413462,-2.6010608,3.739662337483225,5.592241168153222,5.269876229663719,4.017469999999999,-3.284845,1.972822,-5.875371,-18.569427,-11.69807,0,walking
-2.4219744000000003,-11.7526572,-2.7954698,3.677941848769404,5.368512157044557,7.645154431393142,1.541866,-4.654328,2.207454,-6.363788,-19.479225,-16.31409,0,walking
-3.0607474,-7.390422000000001,2.9975404,1.1682203640759736,6.566056124254689,8.919797704403127,-1.331176,1.7525560000000002,18.86152,-4.43885,-14.283808,-2.2505490000000004,0,walking
-2.4123976,-7.9535382,-0.3160341999999998,1.5450910563380398,3.143846821889896,3.1933282425975564,-0.8236049999999999,-3.74932,4.304775,-4.903325,-12.315774,-4.424484,0,walking
-0.7728480000000001,-10.402327599999998,1.6788144000000005,3.094573261152578,5.754097556633949,8.966513921725534,4.266468,-4.309563,17.00362,-3.758896,-19.756952,-6.4068830000000005,0,walking
-2.5838224,-15.1658308,-3.7713464,3.086172756385293,5.394899064020123,4.746783435842454,1.192313,-8.939949,-0.4548979999999999,-6.631939,-22.471977,-11.69807,0,walking
-3.3039984,-11.2326368,-2.9735984,4.377223909126,6.011365602219948,7.658036502302682,4.017469999999999,-3.284845,2.207454,-6.363788,-19.479225,-16.31409,0,walking
-1.1377246,-7.5733386,-0.1465251999999999,2.189087768692429,3.3168454679561576,0.9371371830066824,1.541866,-3.615245,0.842759,-2.964022,-11.056423,-1.268927,0,walking
-2.425805,-8.0464332,2.1183898,1.5839327740849676,6.276401512817811,9.476733939736263,-0.8236049999999999,1.7525560000000002,18.86152,-4.43885,-14.283808,-4.424484,0,walking
-1.5629348,-10.9529942,3.7119704000000007,3.451616454214561,5.862287187961213,7.838171770150569,4.266468,-3.74932,17.00362,-4.903325,-19.756952,-2.121263,0,walking
-1.988145,-7.015010800000001,-1.1118668,1.3887869971700124,2.6531623507579027,3.2439239612424955,-0.339977,-4.170699,2.164359,-3.758896,-9.859323,-6.4068830000000005,0,walking
-0.2231396000000002,-13.578954200000002,-3.2043996,3.014657460735846,7.3552938131745424,5.303892779517635,4.017469999999999,-3.284845,1.972822,-3.586514,-22.471977,-11.69807,0,walking
-3.783796400000001,-11.3590504,-2.9180528000000003,3.3727349742919763,5.574249283789864,7.614419987828141,1.541866,-4.654328,2.207454,-6.363788,-19.479225,-16.31409,0,walking
-2.6077644,-6.9374388,2.9458256,2.085515023729702,6.191409825177437,8.947744946579407,0.933739,1.7525560000000002,18.86152,-4.43885,-14.283808,-2.2505490000000004,0,walking
-1.6979678,-7.993760800000001,-1.3292604,0.7002672043760867,3.214111586657144,1.9041191034703684,-0.8236049999999999,-3.74932,0.756568,-2.715025,-12.516887,-4.424484,0,walking
-1.6855176,-12.0035698,2.4056940000000004,3.5712101809340906,4.641071226139466,9.011526520969465,4.266468,-7.661445,17.00362,-4.903325,-19.756952,-6.4068830000000005,0,walking
-2.8912380000000004,-7.7926476,0.2748547999999999,2.061268172406128,4.229982992308633,2.1502268087160483,-0.339977,-4.170699,2.3558950000000003,-5.33907,-14.42746,-2.5809490000000004,0,walking
-2.1921312,-11.0506772,-2.0503944,4.280989604404418,5.705321915380605,5.667191824966251,4.017469999999999,-3.284845,2.207454,-6.363788,-18.569427,-11.69807,0,walking
-1.7104176000000002,-9.8114384,-3.1555577999999995,3.007783396877059,6.328482316026316,7.388705641405279,1.541866,-3.615245,0.842759,-5.8274870000000005,-19.479225,-16.31409,0,walking
-2.8538884,-7.973649400000001,2.0312408,1.3078348370105073,6.269720676536698,9.51259834285826,-1.331176,1.7525560000000002,18.86152,-4.43885,-14.283808,-4.424484,0,walking
-1.2047621999999998,-10.5986522,3.9695866,3.4078612432701387,5.955039883785011,7.616556221504887,4.266468,-3.74932,17.00362,-4.903325,-19.756952,-1.383848,0,walking
-2.2380996,-8.265742,-1.9689912,1.3607095007345615,2.442793351017642,2.678809655234242,-0.339977,-4.309563,0.670377,-3.758896,-10.424355,-6.4068830000000005,0,walking
-5.140829800000001,-11.3264896,-1.6768986,3.5044041640647987,5.365066782502646,3.9392128697478768,-1.364695,-4.170699,2.3558950000000003,-10.836157,-15.80652,-6.885724000000001,0,walking
-3.7991192000000007,-11.0851538,-2.58478,3.3650087600377354,6.003195273231515,7.824407319695307,1.541866,-3.284845,2.207454,-6.363788,-19.479225,-16.31409,0,walking
-2.3338678,-8.2188156,-0.7651868000000001,1.9831698984542905,4.32496171302051,1.1233239120038798,0.933739,-3.615245,0.407014,-4.43885,-14.283808,-2.2505490000000004,0,walking
-1.9076998,-5.9395356,2.7198132,1.1151615660166467,5.360459723146822,9.222151680934726,-0.8236049999999999,1.7525560000000002,18.86152,-3.763685,-12.516887,-4.424484,0,walking
-1.4767434000000002,-12.1749948,2.2792802,3.448087252005421,4.452595076988777,9.071129085351322,4.266468,-8.51857,17.00362,-4.903325,-19.756952,-6.4068830000000005,0,walking
-2.7724856000000004,-6.4394446,0.6406888000000001,1.97115938221223,2.1454434975016934,1.637306504072527,-0.339977,-4.170699,2.3558950000000003,-5.33907,-9.074024,-1.235408,0,walking
-5.695327000000001,-13.7819828,-6.7985752,3.906681056334456,3.086068797199229,7.696208421379693,-1.034295,-8.331821000000001,-1.063026,-10.836157,-15.80652,-20.025103,0,walking
-2.4219744000000003,-11.7526572,-2.7954698,3.677941848769404,5.368512157044557,7.645154431393142,1.541866,-4.654328,2.207454,-6.363788,-19.479225,-16.31409,0,walking
-3.0607474,-7.390422000000001,2.9975404,1.1682203640759736,6.566056124254689,8.919797704403127,-1.331176,1.7525560000000002,18.86152,-4.43885,-14.283808,-2.2505490000000004,0,walking
-2.4123976,-7.9535382,-0.3160341999999998,1.5450910563380398,3.143846821889896,3.1933282425975564,-0.8236049999999999,-3.74932,4.304775,-4.903325,-12.315774,-4.424484,0,walking
-0.7728480000000001,-10.402327599999998,1.6788144000000005,3.094573261152578,5.754097556633949,8.966513921725534,4.266468,-4.309563,17.00362,-3.758896,-19.756952,-6.4068830000000005,0,walking
-4.990474000000001,-10.092039,-1.2363654,3.590757309477278,4.930144341741832,3.814197811845933,-1.364695,-4.170699,2.3558950000000003,-10.836157,-15.80652,-6.885724000000001,0,walking
-5.4760182,-12.3042814,-7.961199600000002,3.86126292958686,4.188036995162685,9.078097831576354,-1.034295,-7.158663000000001,-0.02873,-10.46745,-15.68681,-20.025103,0,walking
-6.857951,-9.7874964,-7.5484392,5.039365537538728,7.375581393054943,8.22065452628811,-2.331952,1.580173,-0.35913,-14.159308,-18.11453,-20.077776,0,walking
-1.4508862,-7.9228922000000015,1.0141840000000002,1.63773551534648,2.644223644547242,0.9065865195492926,1.278504,-3.744531,2.513912,-3.007117,-10.941502,0.0430959999999999,0,walking
-2.8653804,-7.7782824,-1.5121778,1.915138557924544,5.124739168146492,2.930229624480085,-0.991199,0.292093,2.767697,-5.655104,-13.354857,-5.133168,0,walking
-4.8908752,-8.537723000000002,2.7763166,4.070102842525506,7.725543409269215,11.664402988090572,0.555455,5.214572,23.582888,-9.155427,-12.717999,-3.65834,0,walking
-4.7558422,-8.6440256,-2.3491908,1.8712990374666736,5.164998966980129,4.801080129259425,-2.37026,-1.192312,3.055001,-7.278372999999999,-14.686032999999998,-10.065224,0,walking
-3.7713464,-6.570647200000001,-3.2340876,2.1845502243175368,10.58167570165022,6.305122641145872,-1.388637,8.073248,2.9257150000000003,-7.206547,-15.710752,-13.814544,0,walking
-1.1377246,-7.5733386,-0.1465251999999999,2.189087768692429,3.3168454679561576,0.9371371830066824,1.541866,-3.615245,0.842759,-2.964022,-11.056423,-1.268927,0,walking
-2.425805,-8.0464332,2.1183898,1.5839327740849676,6.276401512817811,9.476733939736263,-0.8236049999999999,1.7525560000000002,18.86152,-4.43885,-14.283808,-4.424484,0,walking
-1.5629348,-10.9529942,3.7119704000000007,3.451616454214561,5.862287187961213,7.838171770150569,4.266468,-3.74932,17.00362,-4.903325,-19.756952,-2.121263,0,walking
-1.988145,-7.015010800000001,-1.1118668,1.3887869971700124,2.6531623507579027,3.2439239612424955,-0.339977,-4.170699,2.164359,-3.758896,-9.859323,-6.4068830000000005,0,walking
-6.556282,-13.511917,-6.114791,2.9893188893370843,3.683511106174515,8.448320722449552,-3.811569,-6.981492,2.3558950000000003,-10.836157,-15.80652,-20.025103,0,walking
-4.7510536000000005,-8.4007746,-2.6546908,3.741694538374464,4.527653620224199,7.129293311909231,-1.034295,-3.2321720000000003,1.766921,-10.46745,-15.68681,-15.251065,0,walking
-2.6077644,-6.9374388,2.9458256,2.085515023729702,6.191409825177437,8.947744946579407,0.933739,1.7525560000000002,18.86152,-4.43885,-14.283808,-2.2505490000000004,0,walking
-1.6979678,-7.993760800000001,-1.3292604,0.7002672043760867,3.214111586657144,1.9041191034703684,-0.8236049999999999,-3.74932,0.756568,-2.715025,-12.516887,-4.424484,0,walking
-1.6855176,-12.0035698,2.4056940000000004,3.5712101809340906,4.641071226139466,9.011526520969465,4.266468,-7.661445,17.00362,-4.903325,-19.756952,-6.4068830000000005,0,walking
-2.8912380000000004,-7.7926476,0.2748547999999999,2.061268172406128,4.229982992308633,2.1502268087160483,-0.339977,-4.170699,2.3558950000000003,-5.33907,-14.42746,-2.5809490000000004,0,walking
-6.918285399999999,-14.0338528,-9.3325984,4.316853285282151,3.2011644696042554,8.038599713674472,-1.034295,-8.331821000000001,-1.063026,-10.836157,-15.80652,-20.025103,0,walking
-2.2457610000000003,-3.4917036,6.241205,7.605272785498788,10.371136701997465,11.757917236284367,10.457873,13.895947,27.241226,-9.433155,-13.369223000000002,-0.02873,0,walking
-2.8538884,-7.973649400000001,2.0312408,1.3078348370105073,6.269720676536698,9.51259834285826,-1.331176,1.7525560000000002,18.86152,-4.43885,-14.283808,-4.424484,0,walking
-1.2047621999999998,-10.5986522,3.9695866,3.4078612432701387,5.955039883785011,7.616556221504887,4.266468,-3.74932,17.00362,-4.903325,-19.756952,-1.383848,0,walking
-2.2380996,-8.265742,-1.9689912,1.3607095007345615,2.442793351017642,2.678809655234242,-0.339977,-4.309563,0.670377,-3.758896,-10.424355,-6.4068830000000005,0,walking
-5.140829800000001,-11.3264896,-1.6768986,3.5044041640647987,5.365066782502646,3.9392128697478768,-1.364695,-4.170699,2.3558950000000003,-10.836157,-15.80652,-6.885724000000001,0,walking
-5.1800948,-9.9014604,-6.920200600000001,4.071680042773217,5.36047345288523,9.980064022633435,-1.034295,-3.2321720000000003,1.766921,-10.46745,-15.68681,-20.025103,0,walking
-2.5981876,-5.875371000000001,3.7320814,7.6781854753182595,11.275216070749952,13.86712027623446,10.457873,13.895947,27.241226,-9.433155,-13.369223000000002,-9.634268,0,walking
-1.9076998,-5.9395356,2.7198132,1.1151615660166467,5.360459723146822,9.222151680934726,-0.8236049999999999,1.7525560000000002,18.86152,-3.763685,-12.516887,-4.424484,0,walking
-1.4767434000000002,-12.1749948,2.2792802,3.448087252005421,4.452595076988777,9.071129085351322,4.266468,-8.51857,17.00362,-4.903325,-19.756952,-6.4068830000000005,0,walking
-2.7724856000000004,-6.4394446,0.6406888000000001,1.97115938221223,2.1454434975016934,1.637306504072527,-0.339977,-4.170699,2.3558950000000003,-5.33907,-9.074024,-1.235408,0,walking
-5.695327000000001,-13.7819828,-6.7985752,3.906681056334456,3.086068797199229,7.696208421379693,-1.034295,-8.331821000000001,-1.063026,-10.836157,-15.80652,-20.025103,0,walking
-6.4308256,-9.408255,-2.2572532,3.535559405641956,5.039946188738179,7.293701046244883,-2.331952,-3.2321720000000003,1.766921,-10.46745,-15.68681,-15.251065,0,walking
-0.1455674000000001,-5.7719416,1.4786588000000005,6.162296137672451,11.278374571447063,14.957483503405667,10.457873,13.895947,27.241226,-4.802768,-13.512875,-9.634268,0,walking
-2.4123976,-7.9535382,-0.3160341999999998,1.5450910563380398,3.143846821889896,3.1933282425975564,-0.8236049999999999,-3.74932,4.304775,-4.903325,-12.315774,-4.424484,0,walking
-0.7728480000000001,-10.402327599999998,1.6788144000000005,3.094573261152578,5.754097556633949,8.966513921725534,4.266468,-4.309563,17.00362,-3.758896,-19.756952,-6.4068830000000005,0,walking
-4.990474000000001,-10.092039,-1.2363654,3.590757309477278,4.930144341741832,3.814197811845933,-1.364695,-4.170699,2.3558950000000003,-10.836157,-15.80652,-6.885724000000001,0,walking
-5.4760182,-12.3042814,-7.961199600000002,3.86126292958686,4.188036995162685,9.078097831576354,-1.034295,-7.158663000000001,-0.02873,-10.46745,-15.68681,-20.025103,0,walking
-2.1040244,-4.525998800000001,6.0123192,7.579707268210052,11.063051367514806,11.920499528273918,10.457873,13.895947,27.241226,-9.433155,-13.369223000000002,-1.173159,0,walking
-1.5801730000000005,-9.490615600000002,-3.284844600000001,2.458221291797792,2.5025814066185337,5.267047793539878,1.292869,-6.933608,1.192313,-4.802768,-13.512875,-9.634268,0,walking
-1.5629348,-10.9529942,3.7119704000000007,3.451616454214561,5.862287187961213,7.838171770150569,4.266468,-3.74932,17.00362,-4.903325,-19.756952,-2.121263,0,walking
-1.988145,-7.015010800000001,-1.1118668,1.3887869971700124,2.6531623507579027,3.2439239612424955,-0.339977,-4.170699,2.164359,-3.758896,-9.859323,-6.4068830000000005,0,walking
-6.556282,-13.511917,-6.114791,2.9893188893370843,3.683511106174515,8.448320722449552,-3.811569,-6.981492,2.3558950000000003,-10.836157,-15.80652,-20.025103,0,walking
-4.7510536000000005,-8.4007746,-2.6546908,3.741694538374464,4.527653620224199,7.129293311909231,-1.034295,-3.2321720000000003,1.766921,-10.46745,-15.68681,-15.251065,0,walking
-1.367568,-7.059064600000001,3.3250670000000007,7.426159622560742,11.799287262963247,13.985620109632752,10.457873,13.895947,27.241226,-9.433155,-13.512875,-9.634268,0,walking
-1.9230228000000005,-10.0393664,-1.6663642,4.343227899470474,3.1950989549176403,4.069948261425776,2.063802,-6.933608,1.192313,-8.724471000000001,-15.040375,-8.307879,0,walking
-1.6855176,-12.0035698,2.4056940000000004,3.5712101809340906,4.641071226139466,9.011526520969465,4.266468,-7.661445,17.00362,-4.903325,-19.756952,-6.4068830000000005,0,walking
-2.8912380000000004,-7.7926476,0.2748547999999999,2.061268172406128,4.229982992308633,2.1502268087160483,-0.339977,-4.170699,2.3558950000000003,-5.33907,-14.42746,-2.5809490000000004,0,walking
-6.918285399999999,-14.0338528,-9.3325984,4.316853285282151,3.2011644696042554,8.038599713674472,-1.034295,-8.331821000000001,-1.063026,-10.836157,-15.80652,-20.025103,0,walking
-2.2457610000000003,-3.4917036,6.241205,7.605272785498788,10.371136701997465,11.757917236284367,10.457873,13.895947,27.241226,-9.433155,-13.369223000000002,-0.02873,0,walking
-2.4219744000000003,-10.3151788,-3.757939,1.881401860318736,2.648970822554148,4.854440085611986,-0.143652,-6.933608,1.058237,-4.802768,-13.512875,-9.634268,0,walking
-2.0791246,-11.711476800000002,-2.5972298,4.7514408894615645,2.444622849413422,3.747181208279792,2.063802,-8.207322999999999,1.192313,-8.724471000000001,-15.040375,-8.078036,0,walking
-2.2380996,-8.265742,-1.9689912,1.3607095007345615,2.442793351017642,2.678809655234242,-0.339977,-4.309563,0.670377,-3.758896,-10.424355,-6.4068830000000005,0,walking
-5.140829800000001,-11.3264896,-1.6768986,3.5044041640647987,5.365066782502646,3.9392128697478768,-1.364695,-4.170699,2.3558950000000003,-10.836157,-15.80652,-6.885724000000001,0,walking
-5.1800948,-9.9014604,-6.920200600000001,4.071680042773217,5.36047345288523,9.980064022633435,-1.034295,-3.2321720000000003,1.766921,-10.46745,-15.68681,-20.025103,0,walking
-2.5981876,-5.875371000000001,3.7320814,7.6781854753182595,11.275216070749952,13.86712027623446,10.457873,13.895947,27.241226,-9.433155,-13.369223000000002,-9.634268,0,walking
-0.2068589999999999,-10.502884,-1.9316418,2.099695586948975,3.55279805435392,3.926504519405103,2.063802,-6.933608,1.192313,-3.323152,-15.040375,-8.307879,0,walking
-2.8816610000000003,-10.4626614,-3.7550658,4.073229557051322,2.6908887388764886,3.393588712503653,0.588974,-5.707777,0.593762,-8.724471000000001,-12.196063,-8.078036,0,walking
-2.7724856000000004,-6.4394446,0.6406888000000001,1.97115938221223,2.1454434975016934,1.637306504072527,-0.339977,-4.170699,2.3558950000000003,-5.33907,-9.074024,-1.235408,0,walking
-5.695327000000001,-13.7819828,-6.7985752,3.906681056334456,3.086068797199229,7.696208421379693,-1.034295,-8.331821000000001,-1.063026,-10.836157,-15.80652,-20.025103,0,walking
-6.4308256,-9.408255,-2.2572532,3.535559405641956,5.039946188738179,7.293701046244883,-2.331952,-3.2321720000000003,1.766921,-10.46745,-15.68681,-15.251065,0,walking
-0.1455674000000001,-5.7719416,1.4786588000000005,6.162296137672451,11.278374571447063,14.957483503405667,10.457873,13.895947,27.241226,-4.802768,-13.512875,-9.634268,0,walking
-2.3482330000000005,-11.036312,-1.6203956000000002,4.610425164836048,2.7271742792962463,3.9764043517384273,2.063802,-8.207322999999999,1.192313,-8.724471000000001,-15.040375,-8.078036,0,walking
-1.6855178000000002,-7.895119400000001,-2.0772094,2.3571619303120013,4.069140596078034,3.0491404701529907,0.588974,-2.293645,2.375048,-4.726154,-12.196063,-5.78918,0,walking
-4.990474000000001,-10.092039,-1.2363654,3.590757309477278,4.930144341741832,3.814197811845933,-1.364695,-4.170699,2.3558950000000003,-10.836157,-15.80652,-6.885724000000001,0,walking
-5.4760182,-12.3042814,-7.961199600000002,3.86126292958686,4.188036995162685,9.078097831576354,-1.034295,-7.158663000000001,-0.02873,-10.46745,-15.68681,-20.025103,0,walking
-2.1040244,-4.525998800000001,6.0123192,7.579707268210052,11.063051367514806,11.920499528273918,10.457873,13.895947,27.241226,-9.433155,-13.369223000000002,-1.173159,0,walking
-1.5801730000000005,-9.490615600000002,-3.284844600000001,2.458221291797792,2.5025814066185337,5.267047793539878,1.292869,-6.933608,1.192313,-4.802768,-13.512875,-9.634268,0,walking
-2.2199036000000003,-11.2115676,-3.9935284,4.635571102109891,3.4066293787532564,3.2498127090333684,2.063802,-5.707777,0.593762,-8.724471000000001,-15.040375,-8.078036,0,walking
-4.2358216,-7.498639799999999,-1.190397,2.0078762727183417,4.484390668442169,2.125033221672899,-1.244985,-2.293645,2.375048,-6.5792660000000005,-12.334928,-3.337517,0,walking
-6.584054399999999,-8.195831,-6.405926199999999,5.239256070308198,7.726919802599771,9.390168715528874,-2.351106,1.580173,2.513912,-14.159308,-18.11453,-20.077776,0,walking
-1.4958972,-10.2711254,-1.291911,1.861228421107737,1.959612671033309,2.691880130416472,1.278504,-8.513782,0.8619129999999999,-3.969586,-13.354857,-5.133168,0,walking
-3.1067160000000005,-7.891288600000001,4.4800304,3.292666228838113,5.106088670025747,10.829356044620926,0.555455,0.292093,23.582888,-7.345411,-12.717999,-1.838747,0,walking
-5.7077768,-8.5597496,-3.8824374,2.94175375852504,7.966015247332213,3.584161414840897,-1.848324,5.214572,-1.388637,-9.155427,-14.686032999999998,-10.065224,0,walking
-3.7761348,-6.3484652000000015,-0.6167464,1.4026571835575858,6.418657541765506,2.267275756083785,-2.37026,1.244985,3.055001,-5.473145,-13.469779,-2.5378540000000003,0,walking
-3.3882741999999992,-6.156929,-2.4717738,2.4153747981416256,9.628240676079717,6.76825335865718,-1.388637,8.073248,2.9257150000000003,-7.206547,-15.710752,-13.814544,0,walking
-6.556282,-13.511917,-6.114791,2.9893188893370843,3.683511106174515,8.448320722449552,-3.811569,-6.981492,2.3558950000000003,-10.836157,-15.80652,-20.025103,0,walking
-4.7510536000000005,-8.4007746,-2.6546908,3.741694538374464,4.527653620224199,7.129293311909231,-1.034295,-3.2321720000000003,1.766921,-10.46745,-15.68681,-15.251065,0,walking
-1.367568,-7.059064600000001,3.3250670000000007,7.426159622560742,11.799287262963247,13.985620109632752,10.457873,13.895947,27.241226,-9.433155,-13.512875,-9.634268,0,walking
-1.9230228000000005,-10.0393664,-1.6663642,4.343227899470474,3.1950989549176403,4.069948261425776,2.063802,-6.933608,1.192313,-8.724471000000001,-15.040375,-8.307879,0,walking
-1.8301276,-8.682333,-3.398808600000001,2.6000070805440703,4.452857830498017,4.0030355170378895,0.588974,-2.293645,2.375048,-5.449203,-12.196063,-8.078036,0,walking
-6.9288196,-10.733685,-6.252697400000001,4.570790008299582,5.036146960388368,8.216622910092157,-3.337517,-3.586514,-1.47004,-14.839262,-16.587029,-20.84871,0,walking
-6.918285399999999,-14.0338528,-9.3325984,4.316853285282151,3.2011644696042554,8.038599713674472,-1.034295,-8.331821000000001,-1.063026,-10.836157,-15.80652,-20.025103,0,walking
-2.2457610000000003,-3.4917036,6.241205,7.605272785498788,10.371136701997465,11.757917236284367,10.457873,13.895947,27.241226,-9.433155,-13.369223000000002,-0.02873,0,walking
-2.4219744000000003,-10.3151788,-3.757939,1.881401860318736,2.648970822554148,4.854440085611986,-0.143652,-6.933608,1.058237,-4.802768,-13.512875,-9.634268,0,walking
-2.0791246,-11.711476800000002,-2.5972298,4.7514408894615645,2.444622849413422,3.747181208279792,2.063802,-8.207322999999999,1.192313,-8.724471000000001,-15.040375,-8.078036,0,walking
-3.0856470000000003,-7.9228924,-1.6807296,2.8254554360644235,4.106140177198326,2.889620012494255,0.588974,-2.293645,2.375048,-6.5792660000000005,-12.334928,-5.78918,0,walking
-8.3184144,-12.100295400000002,-8.522400600000001,5.045995013582881,4.978906987389934,8.534975531252465,-3.337517,-3.586514,-0.732626,-14.839262,-16.587029,-20.84871,0,walking
-5.1800948,-9.9014604,-6.920200600000001,4.071680042773217,5.36047345288523,9.980064022633435,-1.034295,-3.2321720000000003,1.766921,-10.46745,-15.68681,-20.025103,0,walking
-2.5981876,-5.875371000000001,3.7320814,7.6781854753182595,11.275216070749952,13.86712027623446,10.457873,13.895947,27.241226,-9.433155,-13.369223000000002,-9.634268,0,walking
-0.2068589999999999,-10.502884,-1.9316418,2.099695586948975,3.55279805435392,3.926504519405103,2.063802,-6.933608,1.192313,-3.323152,-15.040375,-8.307879,0,walking
-2.8816610000000003,-10.4626614,-3.7550658,4.073229557051322,2.6908887388764886,3.393588712503653,0.588974,-5.707777,0.593762,-8.724471000000001,-12.196063,-8.078036,0,walking
-4.654328,-7.875008199999999,-1.6079458,1.3334521043571457,4.9387138713304894,2.4278276259835048,-3.337517,-2.293645,2.375048,-6.5792660000000005,-13.177685999999998,-3.763685,0,walking
-8.196788999999999,-10.589075400000002,-6.736326200000001,5.160859624796531,5.932648706376168,10.14276366870821,-3.141193,-1.929727,2.8491,-14.839262,-16.587029,-20.84871,0,walking
-6.4308256,-9.408255,-2.2572532,3.535559405641956,5.039946188738179,7.293701046244883,-2.331952,-3.2321720000000003,1.766921,-10.46745,-15.68681,-15.251065,0,walking
-0.1455674000000001,-5.7719416,1.4786588000000005,6.162296137672451,11.278374571447063,14.957483503405667,10.457873,13.895947,27.241226,-4.802768,-13.512875,-9.634268,0,walking
-2.3482330000000005,-11.036312,-1.6203956000000002,4.610425164836048,2.7271742792962463,3.9764043517384273,2.063802,-8.207322999999999,1.192313,-8.724471000000001,-15.040375,-8.078036,0,walking
-1.6855178000000002,-7.895119400000001,-2.0772094,2.3571619303120013,4.069140596078034,3.0491404701529907,0.588974,-2.293645,2.375048,-4.726154,-12.196063,-5.78918,0,walking
-7.1270596,-11.708604,-6.1052146,4.471797817054266,4.838294091296694,8.329768735692024,-3.337517,-3.586514,-0.732626,-14.839262,-16.587029,-20.84871,0,walking
-7.394252399999999,-8.8528004,-1.2344504,4.059431329818907,4.933756187574717,7.3256078084512755,-3.141193,-1.929727,3.835511,-12.53604,-14.293385,-13.929465,0,walking
-2.1040244,-4.525998800000001,6.0123192,7.579707268210052,11.063051367514806,11.920499528273918,10.457873,13.895947,27.241226,-9.433155,-13.369223000000002,-1.173159,0,walking
-1.5801730000000005,-9.490615600000002,-3.284844600000001,2.458221291797792,2.5025814066185337,5.267047793539878,1.292869,-6.933608,1.192313,-4.802768,-13.512875,-9.634268,0,walking
-2.2199036000000003,-11.2115676,-3.9935284,4.635571102109891,3.4066293787532564,3.2498127090333684,2.063802,-5.707777,0.593762,-8.724471000000001,-15.040375,-8.078036,0,walking
-4.2358216,-7.498639799999999,-1.190397,2.0078762727183417,4.484390668442169,2.125033221672899,-1.244985,-2.293645,2.375048,-6.5792660000000005,-12.334928,-3.337517,0,walking
-8.236053799999999,-12.8386672,-8.0588832,5.113307469231456,3.435060279157442,8.94026054617698,-3.337517,-7.278372999999999,-0.732626,-14.839262,-16.587029,-20.84871,0,walking
-7.087794799999999,-11.1818796,-1.0199299999999998,5.093911867451006,7.26498096114338,6.784239975214283,-1.905785,-1.929727,3.835511,-13.848063,-21.739351,-12.674904,0,walking
-1.367568,-7.059064600000001,3.3250670000000007,7.426159622560742,11.799287262963247,13.985620109632752,10.457873,13.895947,27.241226,-9.433155,-13.512875,-9.634268,0,walking
-1.9230228000000005,-10.0393664,-1.6663642,4.343227899470474,3.1950989549176403,4.069948261425776,2.063802,-6.933608,1.192313,-8.724471000000001,-15.040375,-8.307879,0,walking
-1.8301276,-8.682333,-3.398808600000001,2.6000070805440703,4.452857830498017,4.0030355170378895,0.588974,-2.293645,2.375048,-5.449203,-12.196063,-8.078036,0,walking
-6.9288196,-10.733685,-6.252697400000001,4.570790008299582,5.036146960388368,8.216622910092157,-3.337517,-3.586514,-1.47004,-14.839262,-16.587029,-20.84871,0,walking
-6.376238,-8.8441812,-2.1480778000000003,3.60195774937776,4.924948060432943,6.80132088372841,-3.141193,-1.929727,2.8491,-12.53604,-14.293385,-13.929465,0,walking
-7.7964784,-15.596787400000002,-4.388093,5.720784958493441,4.906893179222297,6.918455637666942,-1.441309,-11.477803,3.835511,-13.848063,-21.739351,-12.674904,0,walking
-2.4219744000000003,-10.3151788,-3.757939,1.881401860318736,2.648970822554148,4.854440085611986,-0.143652,-6.933608,1.058237,-4.802768,-13.512875,-9.634268,0,walking
-2.0791246,-11.711476800000002,-2.5972298,4.7514408894615645,2.444622849413422,3.747181208279792,2.063802,-8.207322999999999,1.192313,-8.724471000000001,-15.040375,-8.078036,0,walking
-3.0856470000000003,-7.9228924,-1.6807296,2.8254554360644235,4.106140177198326,2.889620012494255,0.588974,-2.293645,2.375048,-6.5792660000000005,-12.334928,-5.78918,0,walking
-8.3184144,-12.100295400000002,-8.522400600000001,5.045995013582881,4.978906987389934,8.534975531252465,-3.337517,-3.586514,-0.732626,-14.839262,-16.587029,-20.84871,0,walking
-7.656657,-10.3419936,-0.9835382,4.494033309642743,7.462280886493406,6.783507891791031,-3.141193,-1.929727,3.835511,-13.848063,-21.739351,-12.674904,0,walking
-3.643975,-10.8773368,-2.5646688,4.19240652552779,6.286715744837339,4.487248578652145,-0.751779,-2.772485,0.8523360000000001,-10.979809,-20.06341,-10.429143,0,walking
-0.2068589999999999,-10.502884,-1.9316418,2.099695586948975,3.55279805435392,3.926504519405103,2.063802,-6.933608,1.192313,-3.323152,-15.040375,-8.307879,0,walking
-2.8816610000000003,-10.4626614,-3.7550658,4.073229557051322,2.6908887388764886,3.393588712503653,0.588974,-5.707777,0.593762,-8.724471000000001,-12.196063,-8.078036,0,walking
-4.654328,-7.875008199999999,-1.6079458,1.3334521043571457,4.9387138713304894,2.4278276259835048,-3.337517,-2.293645,2.375048,-6.5792660000000005,-13.177685999999998,-3.763685,0,walking
-8.196788999999999,-10.589075400000002,-6.736326200000001,5.160859624796531,5.932648706376168,10.14276366870821,-3.141193,-1.929727,2.8491,-14.839262,-16.587029,-20.84871,0,walking
-8.655518,-14.8086162,-3.6755786,4.771663259796839,5.887124853157158,7.456627871736681,-1.905785,-7.862558,3.835511,-13.848063,-21.739351,-12.674904,0,walking
-1.3244722,-10.1629072,-1.0505756,1.4732208987593136,5.216749675946192,1.5442197455170683,0.790087,-2.772485,0.8523360000000001,-3.141193,-17.046717,-3.371036,0,walking
-2.3482330000000005,-11.036312,-1.6203956000000002,4.610425164836048,2.7271742792962463,3.9764043517384273,2.063802,-8.207322999999999,1.192313,-8.724471000000001,-15.040375,-8.078036,0,walking
-1.6855178000000002,-7.895119400000001,-2.0772094,2.3571619303120013,4.069140596078034,3.0491404701529907,0.588974,-2.293645,2.375048,-4.726154,-12.196063,-5.78918,0,walking
-7.1270596,-11.708604,-6.1052146,4.471797817054266,4.838294091296694,8.329768735692024,-3.337517,-3.586514,-0.732626,-14.839262,-16.587029,-20.84871,0,walking
-7.394252399999999,-8.8528004,-1.2344504,4.059431329818907,4.933756187574717,7.3256078084512755,-3.141193,-1.929727,3.835511,-12.53604,-14.293385,-13.929465,0,walking
-6.263231800000001,-13.5712926,-4.984728,5.739363492338431,7.631957569861372,6.113809785652519,-1.441309,-2.772485,0.8523360000000001,-13.848063,-21.739351,-12.674904,0,walking
-0.8619123999999999,-11.8302294,-2.8979414,1.2185005673342133,4.000413689089455,2.2326321861123475,0.790087,-8.063671000000001,-0.574608,-2.078167,-17.046717,-5.702988,0,walking
-2.2199036000000003,-11.2115676,-3.9935284,4.635571102109891,3.4066293787532564,3.2498127090333684,2.063802,-5.707777,0.593762,-8.724471000000001,-15.040375,-8.078036,0,walking
-4.2358216,-7.498639799999999,-1.190397,2.0078762727183417,4.484390668442169,2.125033221672899,-1.244985,-2.293645,2.375048,-6.5792660000000005,-12.334928,-3.337517,0,walking
-8.236053799999999,-12.8386672,-8.0588832,5.113307469231456,3.435060279157442,8.94026054617698,-3.337517,-7.278372999999999,-0.732626,-14.839262,-16.587029,-20.84871,0,walking
-7.087794799999999,-11.1818796,-1.0199299999999998,5.093911867451006,7.26498096114338,6.784239975214283,-1.905785,-1.929727,3.835511,-13.848063,-21.739351,-12.674904,0,walking
-3.1048006,-10.766245800000002,-2.462197,4.623071113362284,6.2783544763919,4.531778724007385,0.790087,-2.772485,0.8523360000000001,-10.979809,-20.06341,-10.429143,0,walking
-2.5905262,-13.5253246,-6.2689774,2.281944212585334,3.3352404210935527,4.764538800230596,-0.2489969999999999,-8.063671000000001,-3.371036,-6.411672,-17.046717,-14.628572,0,walking
-3.9513902,-9.3574978,-3.1737538,5.935648622903414,5.301761134602039,9.492642829719877,1.278504,-3.744531,2.513912,-14.159308,-18.11453,-20.077776,0,walking
-2.0657172000000004,-8.668925600000001,-1.1530474000000002,1.1348848445951245,5.230378742104132,3.1225720595768967,-0.991199,0.292093,2.767697,-3.969586,-13.354857,-5.133168,0,walking
-5.6522312,-7.304230200000001,3.3212368,3.697687170901049,7.388684035063227,11.347997677427864,0.555455,5.214572,23.582888,-9.155427,-12.717999,-2.8155810000000003,0,walking
-4.113238600000001,-8.813535,-2.573288,2.252924508963915,5.306767004850174,4.838095226426047,-1.848324,-1.192312,3.055001,-7.278372999999999,-14.686032999999998,-10.065224,0,walking
-3.3423054,-5.790137400000001,-0.9787496,1.417051809006749,9.858143079242016,2.351819625407591,-1.388637,8.073248,2.9257150000000003,-5.061342,-13.469779,-2.5378540000000003,0,walking
-4.1754876,-9.2875874,-3.3451784000000004,2.252965453972009,5.291420770487526,6.153615206362743,-1.666364,-1.335964,2.48997,-7.206547,-15.710752,-13.814544,0,walking
-1.8301276,-8.682333,-3.398808600000001,2.6000070805440703,4.452857830498017,4.0030355170378895,0.588974,-2.293645,2.375048,-5.449203,-12.196063,-8.078036,0,walking
-6.9288196,-10.733685,-6.252697400000001,4.570790008299582,5.036146960388368,8.216622910092157,-3.337517,-3.586514,-1.47004,-14.839262,-16.587029,-20.84871,0,walking
-6.376238,-8.8441812,-2.1480778000000003,3.60195774937776,4.924948060432943,6.80132088372841,-3.141193,-1.929727,2.8491,-12.53604,-14.293385,-13.929465,0,walking
-7.7964784,-15.596787400000002,-4.388093,5.720784958493441,4.906893179222297,6.918455637666942,-1.441309,-11.477803,3.835511,-13.848063,-21.739351,-12.674904,0,walking
-1.0860097999999998,-10.7719922,-1.5868766,1.5443602035371151,5.61848912771972,2.0940645592748086,0.790087,-2.772485,0.8523360000000001,-3.141193,-17.046717,-4.151545,0,walking
-2.3434446,-9.8746456,-4.8228796,2.870983518817428,4.668034933234893,6.239876020155473,1.671153,-2.724601,2.432509,-6.411672,-14.235924,-14.628572,0,walking
-3.0856470000000003,-7.9228924,-1.6807296,2.8254554360644235,4.106140177198326,2.889620012494255,0.588974,-2.293645,2.375048,-6.5792660000000005,-12.334928,-5.78918,0,walking
-8.3184144,-12.100295400000002,-8.522400600000001,5.045995013582881,4.978906987389934,8.534975531252465,-3.337517,-3.586514,-0.732626,-14.839262,-16.587029,-20.84871,0,walking
-7.656657,-10.3419936,-0.9835382,4.494033309642743,7.462280886493406,6.783507891791031,-3.141193,-1.929727,3.835511,-13.848063,-21.739351,-12.674904,0,walking
-3.643975,-10.8773368,-2.5646688,4.19240652552779,6.286715744837339,4.487248578652145,-0.751779,-2.772485,0.8523360000000001,-10.979809,-20.06341,-10.429143,0,walking
-1.1501744,-13.0234998,-3.4811690000000004,1.3493888803591054,3.5356347692504526,1.8159951096489768,0.790087,-8.063671000000001,-0.68953,-2.193089,-17.046717,-5.702988,0,walking
-4.876509799999999,-9.4389006,-3.8010344,4.339196467513507,4.5279534006302224,6.392557341772212,1.671153,-2.724601,2.432509,-8.777142999999999,-13.431472,-14.628572,0,walking
-4.654328,-7.875008199999999,-1.6079458,1.3334521043571457,4.9387138713304894,2.4278276259835048,-3.337517,-2.293645,2.375048,-6.5792660000000005,-13.177685999999998,-3.763685,0,walking
-8.196788999999999,-10.589075400000002,-6.736326200000001,5.160859624796531,5.932648706376168,10.14276366870821,-3.141193,-1.929727,2.8491,-14.839262,-16.587029,-20.84871,0,walking
-8.655518,-14.8086162,-3.6755786,4.771663259796839,5.887124853157158,7.456627871736681,-1.905785,-7.862558,3.835511,-13.848063,-21.739351,-12.674904,0,walking
-1.3244722,-10.1629072,-1.0505756,1.4732208987593136,5.216749675946192,1.5442197455170683,0.790087,-2.772485,0.8523360000000001,-3.141193,-17.046717,-3.371036,0,walking
-1.8406622,-12.299493200000002,-6.1396904,2.9965394674029744,2.8009923836959465,4.870428214767394,1.671153,-8.063671000000001,-2.724601,-6.411672,-14.848839000000002,-14.628572,0,walking
-3.5702334,-4.7242384,1.9574994,4.991220217352296,9.9543654622867,5.732826481843865,3.2896330000000003,11.439496,11.674128,-8.777142999999999,-13.062764,-2.145205,0,walking
-7.1270596,-11.708604,-6.1052146,4.471797817054266,4.838294091296694,8.329768735692024,-3.337517,-3.586514,-0.732626,-14.839262,-16.587029,-20.84871,0,walking
-7.394252399999999,-8.8528004,-1.2344504,4.059431329818907,4.933756187574717,7.3256078084512755,-3.141193,-1.929727,3.835511,-12.53604,-14.293385,-13.929465,0,walking
-6.263231800000001,-13.5712926,-4.984728,5.739363492338431,7.631957569861372,6.113809785652519,-1.441309,-2.772485,0.8523360000000001,-13.848063,-21.739351,-12.674904,0,walking
-0.8619123999999999,-11.8302294,-2.8979414,1.2185005673342133,4.000413689089455,2.2326321861123475,0.790087,-8.063671000000001,-0.574608,-2.078167,-17.046717,-5.702988,0,walking
-3.559699,-9.6735326,-4.1113230000000005,3.828523160066881,4.785740138011131,6.316802938994575,1.671153,-2.724601,2.432509,-8.101977999999999,-14.235924,-14.628572,0,walking
-2.3319521999999995,-6.2555700000000005,0.7278376,4.375132063544905,10.270847710334309,6.568840516123092,3.2896330000000003,11.439496,11.674128,-8.777142999999999,-13.062764,-5.928043,0,walking
-8.236053799999999,-12.8386672,-8.0588832,5.113307469231456,3.435060279157442,8.94026054617698,-3.337517,-7.278372999999999,-0.732626,-14.839262,-16.587029,-20.84871,0,walking
-7.087794799999999,-11.1818796,-1.0199299999999998,5.093911867451006,7.26498096114338,6.784239975214283,-1.905785,-1.929727,3.835511,-13.848063,-21.739351,-12.674904,0,walking
-3.1048006,-10.766245800000002,-2.462197,4.623071113362284,6.2783544763919,4.531778724007385,0.790087,-2.772485,0.8523360000000001,-10.979809,-20.06341,-10.429143,0,walking
-2.5905262,-13.5253246,-6.2689774,2.281944212585334,3.3352404210935527,4.764538800230596,-0.2489969999999999,-8.063671000000001,-3.371036,-6.411672,-17.046717,-14.628572,0,walking
-2.9362487999999995,-4.464707,1.4595056,5.495921338679366,9.724495569751983,6.06913982456211,3.2896330000000003,11.439496,11.674128,-8.777142999999999,-13.062764,-2.724601,0,walking
-2.0484788,-8.0119566,-1.3177683999999998,0.9039714320169084,3.9764530917807015,2.827910639025622,-1.16837,-2.561796,1.388637,-3.505111,-12.215217,-5.928043,0,walking
-6.376238,-8.8441812,-2.1480778000000003,3.60195774937776,4.924948060432943,6.80132088372841,-3.141193,-1.929727,2.8491,-12.53604,-14.293385,-13.929465,0,walking
-7.7964784,-15.596787400000002,-4.388093,5.720784958493441,4.906893179222297,6.918455637666942,-1.441309,-11.477803,3.835511,-13.848063,-21.739351,-12.674904,0,walking
-1.0860097999999998,-10.7719922,-1.5868766,1.5443602035371151,5.61848912771972,2.0940645592748086,0.790087,-2.772485,0.8523360000000001,-3.141193,-17.046717,-4.151545,0,walking
-2.3434446,-9.8746456,-4.8228796,2.870983518817428,4.668034933234893,6.239876020155473,1.671153,-2.724601,2.432509,-6.411672,-14.235924,-14.628572,0,walking
-3.7186738,-5.3783344,0.285389,4.972208073653263,9.897409387353354,6.697715594829441,3.2896330000000003,11.439496,11.674128,-8.777142999999999,-13.062764,-5.928043,0,walking
-0.7910442000000001,-7.824250999999999,0.4453215999999999,1.702566675104737,3.338968011099163,1.700793151582314,2.087744,-2.561796,2.662352,-2.221819,-11.444284,-1.881842,0,walking
-7.656657,-10.3419936,-0.9835382,4.494033309642743,7.462280886493406,6.783507891791031,-3.141193,-1.929727,3.835511,-13.848063,-21.739351,-12.674904,0,walking
-3.643975,-10.8773368,-2.5646688,4.19240652552779,6.286715744837339,4.487248578652145,-0.751779,-2.772485,0.8523360000000001,-10.979809,-20.06341,-10.429143,0,walking
-1.1501744,-13.0234998,-3.4811690000000004,1.3493888803591054,3.5356347692504526,1.8159951096489768,0.790087,-8.063671000000001,-0.68953,-2.193089,-17.046717,-5.702988,0,walking
-4.876509799999999,-9.4389006,-3.8010344,4.339196467513507,4.5279534006302224,6.392557341772212,1.671153,-2.724601,2.432509,-8.777142999999999,-13.431472,-14.628572,0,walking
-1.0208874,-4.1553764,1.3934256,2.571201694644801,9.581404661863957,6.397394837806894,3.2896330000000003,11.439496,11.674128,-3.505111,-12.215217,-5.928043,0,walking
-6.6137426,-12.765883400000002,-3.055959,8.949352248897448,6.564767765189473,9.454478438557068,2.087744,-7.522581,3.4811690000000004,-17.348385,-22.869415,-19.531897,0,walking
-8.655518,-14.8086162,-3.6755786,4.771663259796839,5.887124853157158,7.456627871736681,-1.905785,-7.862558,3.835511,-13.848063,-21.739351,-12.674904,0,walking
-1.3244722,-10.1629072,-1.0505756,1.4732208987593136,5.216749675946192,1.5442197455170683,0.790087,-2.772485,0.8523360000000001,-3.141193,-17.046717,-3.371036,0,walking
-1.8406622,-12.299493200000002,-6.1396904,2.9965394674029744,2.8009923836959465,4.870428214767394,1.671153,-8.063671000000001,-2.724601,-6.411672,-14.848839000000002,-14.628572,0,walking
-3.5702334,-4.7242384,1.9574994,4.991220217352296,9.9543654622867,5.732826481843865,3.2896330000000003,11.439496,11.674128,-8.777142999999999,-13.062764,-2.145205,0,walking
-1.331176,-7.0734294,-1.2727574,2.091781546410499,3.217788088365096,2.851156110101708,2.087744,-2.561796,1.388637,-3.505111,-11.444284,-5.928043,0,walking
-7.8663888,-11.0171584,-1.919192,8.133434098660953,11.339667013653832,10.43452922095772,0.493206,7.417236999999999,6.6941880000000005,-17.348385,-22.869415,-19.531897,0,walking
-6.263231800000001,-13.5712926,-4.984728,5.739363492338431,7.631957569861372,6.113809785652519,-1.441309,-2.772485,0.8523360000000001,-13.848063,-21.739351,-12.674904,0,walking
-0.8619123999999999,-11.8302294,-2.8979414,1.2185005673342133,4.000413689089455,2.2326321861123475,0.790087,-8.063671000000001,-0.574608,-2.078167,-17.046717,-5.702988,0,walking
-3.559699,-9.6735326,-4.1113230000000005,3.828523160066881,4.785740138011131,6.316802938994575,1.671153,-2.724601,2.432509,-8.101977999999999,-14.235924,-14.628572,0,walking
-2.3319521999999995,-6.2555700000000005,0.7278376,4.375132063544905,10.270847710334309,6.568840516123092,3.2896330000000003,11.439496,11.674128,-8.777142999999999,-13.062764,-5.928043,0,walking
-3.5884294,-8.7043596,1.1281478,6.683140511041034,4.794446637211932,2.1396730027566595,2.087744,-2.561796,3.4811690000000004,-15.155296,-15.844827,-1.881842,0,walking
-7.351156599999999,-11.321701,-5.637866000000001,6.988607331692366,11.20202270819179,9.979166117074488,0.493206,7.417236999999999,6.6941880000000005,-17.348385,-22.869415,-19.531897,0,walking
-3.1048006,-10.766245800000002,-2.462197,4.623071113362284,6.2783544763919,4.531778724007385,0.790087,-2.772485,0.8523360000000001,-10.979809,-20.06341,-10.429143,0,walking
-2.5905262,-13.5253246,-6.2689774,2.281944212585334,3.3352404210935527,4.764538800230596,-0.2489969999999999,-8.063671000000001,-3.371036,-6.411672,-17.046717,-14.628572,0,walking
-2.9362487999999995,-4.464707,1.4595056,5.495921338679366,9.724495569751983,6.06913982456211,3.2896330000000003,11.439496,11.674128,-8.777142999999999,-13.062764,-2.724601,0,walking
-2.0484788,-8.0119566,-1.3177683999999998,0.9039714320169084,3.9764530917807015,2.827910639025622,-1.16837,-2.561796,1.388637,-3.505111,-12.215217,-5.928043,0,walking
-6.1454366,-14.005122,-3.2599450000000005,9.31486143376566,5.960236928776825,9.433793267303216,2.087744,-7.522581,3.4811690000000004,-17.348385,-22.869415,-19.531897,0,walking
-4.786487800000001,-6.2689776,-0.564074,3.836991271264726,8.629733671006178,6.535164938990102,-1.321599,7.417236999999999,6.6941880000000005,-10.711658,-13.718776,-10.970232,0,walking
-1.64338,-9.085516600000002,0.237505,1.901672654360366,3.555634895116525,2.0626646242254214,1.278504,-3.744531,2.513912,-3.969586,-13.354857,-3.083732,0,walking
-3.5405454,-7.6509108,-1.2631808000000002,2.7947803164084832,4.956644640345342,2.813887431895989,-0.991199,0.292093,2.767697,-7.345411,-12.717999,-5.133168,0,walking
-4.8774676,-8.9313298,1.1310212,4.06009388831623,8.035677643001005,12.98368742362318,0.555455,5.214572,23.582888,-9.155427,-14.686032999999998,-10.065224,0,walking
-3.8489186,-5.457822,-0.4242526000000001,1.3765737841435524,5.413780279010592,2.108337764400026,-2.37026,1.244985,3.055001,-5.473145,-11.808203,-2.5378540000000003,0,walking
-3.5558682000000004,-8.583692000000001,-3.4591426,2.357535327192511,9.638493818622464,6.1996823877322775,-1.388637,8.073248,2.9257150000000003,-7.206547,-15.710752,-13.814544,0,walking
-4.6648626,-5.6972424,-0.4271252,1.7532665726773555,8.338736754610906,3.079351588840206,-2.394202,6.713342,3.098097,-7.120356,-13.292608,-3.888183,0,walking
-1.0860097999999998,-10.7719922,-1.5868766,1.5443602035371151,5.61848912771972,2.0940645592748086,0.790087,-2.772485,0.8523360000000001,-3.141193,-17.046717,-4.151545,0,walking
-2.3434446,-9.8746456,-4.8228796,2.870983518817428,4.668034933234893,6.239876020155473,1.671153,-2.724601,2.432509,-6.411672,-14.235924,-14.628572,0,walking
-3.7186738,-5.3783344,0.285389,4.972208073653263,9.897409387353354,6.697715594829441,3.2896330000000003,11.439496,11.674128,-8.777142999999999,-13.062764,-5.928043,0,walking
-0.7910442000000001,-7.824250999999999,0.4453215999999999,1.702566675104737,3.338968011099163,1.700793151582314,2.087744,-2.561796,2.662352,-2.221819,-11.444284,-1.881842,0,walking
-8.2398842,-11.8110758,-2.7475858,7.762489422320632,11.367625730439212,10.140131897186777,0.493206,7.417236999999999,6.6941880000000005,-17.348385,-22.869415,-19.531897,0,walking
-5.3859958,-8.871953600000001,-1.3800178,3.652722327808083,3.811037655488043,5.520251798268281,-1.321599,-4.434061,2.202666,-10.711658,-13.397953,-10.970232,0,walking
-1.1501744,-13.0234998,-3.4811690000000004,1.3493888803591054,3.5356347692504526,1.8159951096489768,0.790087,-8.063671000000001,-0.68953,-2.193089,-17.046717,-5.702988,0,walking
-4.876509799999999,-9.4389006,-3.8010344,4.339196467513507,4.5279534006302224,6.392557341772212,1.671153,-2.724601,2.432509,-8.777142999999999,-13.431472,-14.628572,0,walking
-1.0208874,-4.1553764,1.3934256,2.571201694644801,9.581404661863957,6.397394837806894,3.2896330000000003,11.439496,11.674128,-3.505111,-12.215217,-5.928043,0,walking
-6.6137426,-12.765883400000002,-3.055959,8.949352248897448,6.564767765189473,9.454478438557068,2.087744,-7.522581,3.4811690000000004,-17.348385,-22.869415,-19.531897,0,walking
-4.4235268,-8.190085,-1.5619771999999996,4.30409737491018,9.171308074509572,6.408727689066894,0.493206,7.417236999999999,6.6941880000000005,-10.711658,-14.039598000000002,-10.970232,0,walking
-3.960009400000001,-8.9102608,3.7790078,3.077047271777816,3.164007102776825,8.432325890509581,0.02873,-4.434061,18.387468,-6.497863,-12.29662,-2.715025,0,walking
-1.8406622,-12.299493200000002,-6.1396904,2.9965394674029744,2.8009923836959465,4.870428214767394,1.671153,-8.063671000000001,-2.724601,-6.411672,-14.848839000000002,-14.628572,0,walking
-3.5702334,-4.7242384,1.9574994,4.991220217352296,9.9543654622867,5.732826481843865,3.2896330000000003,11.439496,11.674128,-8.777142999999999,-13.062764,-2.145205,0,walking
-1.331176,-7.0734294,-1.2727574,2.091781546410499,3.217788088365096,2.851156110101708,2.087744,-2.561796,1.388637,-3.505111,-11.444284,-5.928043,0,walking
-7.8663888,-11.0171584,-1.919192,8.133434098660953,11.339667013653832,10.43452922095772,0.493206,7.417236999999999,6.6941880000000005,-17.348385,-22.869415,-19.531897,0,walking
-4.782657,-9.1563848,-1.4623783999999995,3.834840558974584,4.166979539617899,5.517500614202078,-1.321599,-4.434061,2.202666,-10.711658,-13.718776,-10.970232,0,walking
-2.6546908,-11.9087592,2.7523742,3.0789199939244445,2.1279242067705804,8.936975207196767,0.02873,-9.888053,18.387468,-6.320692,-15.394717000000002,-2.715025,0,walking
-3.559699,-9.6735326,-4.1113230000000005,3.828523160066881,4.785740138011131,6.316802938994575,1.671153,-2.724601,2.432509,-8.101977999999999,-14.235924,-14.628572,0,walking
-2.3319521999999995,-6.2555700000000005,0.7278376,4.375132063544905,10.270847710334309,6.568840516123092,3.2896330000000003,11.439496,11.674128,-8.777142999999999,-13.062764,-5.928043,0,walking
-3.5884294,-8.7043596,1.1281478,6.683140511041034,4.794446637211932,2.1396730027566595,2.087744,-2.561796,3.4811690000000004,-15.155296,-15.844827,-1.881842,0,walking
-7.351156599999999,-11.321701,-5.637866000000001,6.988607331692366,11.20202270819179,9.979166117074488,0.493206,7.417236999999999,6.6941880000000005,-17.348385,-22.869415,-19.531897,0,walking
-4.5078026,-8.1699736,4.4915222,2.346507204944468,3.0074881490236667,7.878754601116485,-1.321599,-4.434061,18.387468,-6.497863,-12.29662,-1.067814,0,walking
-3.1689654,-11.7698954,-3.6870706,4.209470138263164,2.766553826419216,5.679213235206158,0.02873,-8.087613000000001,1.857901,-9.931149,-15.394717000000002,-13.278243,0,walking
-2.9362487999999995,-4.464707,1.4595056,5.495921338679366,9.724495569751983,6.06913982456211,3.2896330000000003,11.439496,11.674128,-8.777142999999999,-13.062764,-2.724601,0,walking
-2.0484788,-8.0119566,-1.3177683999999998,0.9039714320169084,3.9764530917807015,2.827910639025622,-1.16837,-2.561796,1.388637,-3.505111,-12.215217,-5.928043,0,walking
-6.1454366,-14.005122,-3.2599450000000005,9.31486143376566,5.960236928776825,9.433793267303216,2.087744,-7.522581,3.4811690000000004,-17.348385,-22.869415,-19.531897,0,walking
-4.786487800000001,-6.2689776,-0.564074,3.836991271264726,8.629733671006178,6.535164938990102,-1.321599,7.417236999999999,6.6941880000000005,-10.711658,-13.718776,-10.970232,0,walking
-3.837426400000001,-10.2337756,3.733039199999999,3.217438970261643,1.9896246801532191,8.444468488749289,0.02873,-7.019799000000001,18.387468,-6.497863,-12.29662,-2.715025,0,walking
-4.8525678,-9.3843128,-2.9831752,3.573136930817681,5.1130883402443,6.034296767187391,-0.5841850000000001,-2.5187,1.80044,-9.931149,-15.394717000000002,-13.278243,0,walking
-3.7186738,-5.3783344,0.285389,4.972208073653263,9.897409387353354,6.697715594829441,3.2896330000000003,11.439496,11.674128,-8.777142999999999,-13.062764,-5.928043,0,walking
-0.7910442000000001,-7.824250999999999,0.4453215999999999,1.702566675104737,3.338968011099163,1.700793151582314,2.087744,-2.561796,2.662352,-2.221819,-11.444284,-1.881842,0,walking
-8.2398842,-11.8110758,-2.7475858,7.762489422320632,11.367625730439212,10.140131897186777,0.493206,7.417236999999999,6.6941880000000005,-17.348385,-22.869415,-19.531897,0,walking
-5.3859958,-8.871953600000001,-1.3800178,3.652722327808083,3.811037655488043,5.520251798268281,-1.321599,-4.434061,2.202666,-10.711658,-13.397953,-10.970232,0,walking
-3.503196,-12.1299834,0.3102883999999999,4.417614947173587,2.233220242400378,11.533061584775604,0.02873,-9.888053,18.387468,-9.931149,-15.394717000000002,-13.278243,0,walking
-5.8064178,-7.9219344,1.2775462,3.4779514973027874,3.809864340060457,1.7722509735820997,-2.700659,-2.5187,2.715025,-11.535264,-13.268666,-1.599327,0,walking
-1.0208874,-4.1553764,1.3934256,2.571201694644801,9.581404661863957,6.397394837806894,3.2896330000000003,11.439496,11.674128,-3.505111,-12.215217,-5.928043,0,walking
-6.6137426,-12.765883400000002,-3.055959,8.949352248897448,6.564767765189473,9.454478438557068,2.087744,-7.522581,3.4811690000000004,-17.348385,-22.869415,-19.531897,0,walking
-4.4235268,-8.190085,-1.5619771999999996,4.30409737491018,9.171308074509572,6.408727689066894,0.493206,7.417236999999999,6.6941880000000005,-10.711658,-14.039598000000002,-10.970232,0,walking
-3.960009400000001,-8.9102608,3.7790078,3.077047271777816,3.164007102776825,8.432325890509581,0.02873,-4.434061,18.387468,-6.497863,-12.29662,-2.715025,0,walking
-3.7148432,-10.0910812,-2.7839776,3.853008484617988,5.034211676101752,6.206928930379967,-0.5841850000000001,-2.5187,1.857901,-9.931149,-15.394717000000002,-13.278243,0,walking
-9.7281206,-12.5590246,-0.4223368,4.679133529375263,5.420751880648919,6.108393829247439,-3.74932,-7.517792999999999,2.949657,-15.638926,-21.08813,-11.247959,0,walking
-1.331176,-7.0734294,-1.2727574,2.091781546410499,3.217788088365096,2.851156110101708,2.087744,-2.561796,1.388637,-3.505111,-11.444284,-5.928043,0,walking
-7.8663888,-11.0171584,-1.919192,8.133434098660953,11.339667013653832,10.43452922095772,0.493206,7.417236999999999,6.6941880000000005,-17.348385,-22.869415,-19.531897,0,walking
-4.782657,-9.1563848,-1.4623783999999995,3.834840558974584,4.166979539617899,5.517500614202078,-1.321599,-4.434061,2.202666,-10.711658,-13.718776,-10.970232,0,walking
-2.6546908,-11.9087592,2.7523742,3.0789199939244445,2.1279242067705804,8.936975207196767,0.02873,-9.888053,18.387468,-6.320692,-15.394717000000002,-2.715025,0,walking
-7.042783599999998,-8.9591026,-1.9000384000000003,3.6579823887904106,4.5451598449510335,6.560767740447744,-2.700659,-2.5187,2.715025,-11.535264,-13.402741,-13.278243,0,walking
-7.3051884,-11.172303,-1.244027,5.899990078431005,6.709098366795199,5.855547099412957,-1.819593,-2.767697,2.949657,-15.638926,-21.08813,-11.247959,0,walking
-3.5884294,-8.7043596,1.1281478,6.683140511041034,4.794446637211932,2.1396730027566595,2.087744,-2.561796,3.4811690000000004,-15.155296,-15.844827,-1.881842,0,walking
-7.351156599999999,-11.321701,-5.637866000000001,6.988607331692366,11.20202270819179,9.979166117074488,0.493206,7.417236999999999,6.6941880000000005,-17.348385,-22.869415,-19.531897,0,walking
-4.5078026,-8.1699736,4.4915222,2.346507204944468,3.0074881490236667,7.878754601116485,-1.321599,-4.434061,18.387468,-6.497863,-12.29662,-1.067814,0,walking
-3.1689654,-11.7698954,-3.6870706,4.209470138263164,2.766553826419216,5.679213235206158,0.02873,-8.087613000000001,1.857901,-9.931149,-15.394717000000002,-13.278243,0,walking
-7.140467200000001,-8.8451386,2.187343,4.139595626780555,4.37709769283001,0.857962424235176,-2.700659,-2.5187,2.949657,-11.535264,-13.268666,0.8619129999999999,0,walking
-4.537491,-10.499053399999998,-2.3463176,6.373137353642121,6.724651030546366,5.092683452463475,0.009577,-2.767697,0.995988,-15.638926,-21.08813,-11.247959,0,walking
-6.1454366,-14.005122,-3.2599450000000005,9.31486143376566,5.960236928776825,9.433793267303216,2.087744,-7.522581,3.4811690000000004,-17.348385,-22.869415,-19.531897,0,walking
-4.786487800000001,-6.2689776,-0.564074,3.836991271264726,8.629733671006178,6.535164938990102,-1.321599,7.417236999999999,6.6941880000000005,-10.711658,-13.718776,-10.970232,0,walking
-3.837426400000001,-10.2337756,3.733039199999999,3.217438970261643,1.9896246801532191,8.444468488749289,0.02873,-7.019799000000001,18.387468,-6.497863,-12.29662,-2.715025,0,walking
-4.8525678,-9.3843128,-2.9831752,3.573136930817681,5.1130883402443,6.034296767187391,-0.5841850000000001,-2.5187,1.80044,-9.931149,-15.394717000000002,-13.278243,0,walking
-9.2483226,-13.2724968,-0.8810659999999999,5.200059177439791,4.7893441462813255,6.073864532525071,-3.74932,-8.2169,2.949657,-15.638926,-21.08813,-11.247959,0,walking
-2.3664286,-10.0259586,0.1465252,2.033511483009452,5.4993414362918775,1.3077845836783288,0.009577,-2.767697,1.345541,-5.142745,-17.630901,-1.5610190000000002,0,walking
-1.3905522,-10.501926400000002,-1.6979676,1.87452875346024,1.7585322838437745,2.427738522287419,1.278504,-8.872911,0.8619129999999999,-3.969586,-13.354857,-5.133168,0,walking
-4.7395616,-8.288726,4.437892400000001,3.9416738955410553,5.350424394733515,10.85724965290892,0.555455,0.292093,23.582888,-9.155427,-12.717999,-1.838747,0,walking
-4.350743400000001,-6.467217199999999,-2.9937098,2.48297648742035,8.31617188316245,4.726115730022986,-1.848324,5.214572,3.055001,-7.278372999999999,-14.686032999999998,-10.065224,0,walking
-4.159206999999999,-4.495353200000001,-0.6426035999999999,1.1639543999867432,9.069542903756462,2.2150687485733487,-2.743755,8.073248,2.9257150000000003,-5.473145,-13.469779,-2.5378540000000003,0,walking
-3.361459,-9.5030654,-3.3336864,2.4036377338264807,5.444802976984915,6.15575431319922,-1.388637,-1.335964,2.48997,-7.206547,-15.710752,-13.814544,0,walking
-4.912902000000001,-4.9789818,-0.9184154,1.4001147752168392,10.157763918032266,2.761215914760253,-3.691859,6.713342,3.098097,-7.120356,-13.292608,-3.888183,0,walking
-8.2398842,-11.8110758,-2.7475858,7.762489422320632,11.367625730439212,10.140131897186777,0.493206,7.417236999999999,6.6941880000000005,-17.348385,-22.869415,-19.531897,0,walking
-5.3859958,-8.871953600000001,-1.3800178,3.652722327808083,3.811037655488043,5.520251798268281,-1.321599,-4.434061,2.202666,-10.711658,-13.397953,-10.970232,0,walking
-3.503196,-12.1299834,0.3102883999999999,4.417614947173587,2.233220242400378,11.533061584775604,0.02873,-9.888053,18.387468,-9.931149,-15.394717000000002,-13.278243,0,walking
-5.8064178,-7.9219344,1.2775462,3.4779514973027874,3.809864340060457,1.7722509735820997,-2.700659,-2.5187,2.715025,-11.535264,-13.268666,-1.599327,0,walking
-6.803363599999999,-11.0516352,-1.5667654,6.3663239743748745,6.780586953238392,5.63017620767719,-1.240196,-2.767697,2.949657,-15.638926,-21.08813,-11.247959,0,walking
-4.047158399999999,-12.580093000000002,1.6816874000000002,3.340717884286669,3.3615334177318545,6.252009821798452,0.009577,-9.279925,12.516887,-8.983044999999999,-17.630901,-2.944868,0,walking
-4.4235268,-8.190085,-1.5619771999999996,4.30409737491018,9.171308074509572,6.408727689066894,0.493206,7.417236999999999,6.6941880000000005,-10.711658,-14.039598000000002,-10.970232,0,walking
-3.960009400000001,-8.9102608,3.7790078,3.077047271777816,3.164007102776825,8.432325890509581,0.02873,-4.434061,18.387468,-6.497863,-12.29662,-2.715025,0,walking
-3.7148432,-10.0910812,-2.7839776,3.853008484617988,5.034211676101752,6.206928930379967,-0.5841850000000001,-2.5187,1.857901,-9.931149,-15.394717000000002,-13.278243,0,walking
-9.7281206,-12.5590246,-0.4223368,4.679133529375263,5.420751880648919,6.108393829247439,-3.74932,-7.517792999999999,2.949657,-15.638926,-21.08813,-11.247959,0,walking
-2.4382548,-9.8076076,0.1723824,2.095115100769693,5.413592762846667,1.2662001072284348,0.009577,-2.767697,1.345541,-5.142745,-17.630901,-1.431733,0,walking
-4.794149399999999,-10.7269812,-0.6253652,3.327460318538494,2.397516336901211,8.857146963791287,-1.288081,-7.747636999999999,12.516887,-8.983044999999999,-13.872005,-12.124237,0,walking
-4.782657,-9.1563848,-1.4623783999999995,3.834840558974584,4.166979539617899,5.517500614202078,-1.321599,-4.434061,2.202666,-10.711658,-13.718776,-10.970232,0,walking
-2.6546908,-11.9087592,2.7523742,3.0789199939244445,2.1279242067705804,8.936975207196767,0.02873,-9.888053,18.387468,-6.320692,-15.394717000000002,-2.715025,0,walking
-7.042783599999998,-8.9591026,-1.9000384000000003,3.6579823887904106,4.5451598449510335,6.560767740447744,-2.700659,-2.5187,2.715025,-11.535264,-13.402741,-13.278243,0,walking
-7.3051884,-11.172303,-1.244027,5.899990078431005,6.709098366795199,5.855547099412957,-1.819593,-2.767697,2.949657,-15.638926,-21.08813,-11.247959,0,walking
-3.799119,-11.3284042,2.4698586,3.526976407143447,3.8846945473603465,5.751295654954656,0.009577,-7.613561,12.516887,-8.983044999999999,-17.630901,-1.5610190000000002,0,walking
-4.1831492,-8.406521199999998,-2.3645136,2.8052065154402093,4.128769741891245,5.761822488766883,-1.288081,-2.801216,2.011129,-7.580042,-13.872005,-12.124237,0,walking
-4.5078026,-8.1699736,4.4915222,2.346507204944468,3.0074881490236667,7.878754601116485,-1.321599,-4.434061,18.387468,-6.497863,-12.29662,-1.067814,0,walking
-3.1689654,-11.7698954,-3.6870706,4.209470138263164,2.766553826419216,5.679213235206158,0.02873,-8.087613000000001,1.857901,-9.931149,-15.394717000000002,-13.278243,0,walking
-7.140467200000001,-8.8451386,2.187343,4.139595626780555,4.37709769283001,0.857962424235176,-2.700659,-2.5187,2.949657,-11.535264,-13.268666,0.8619129999999999,0,walking
-4.537491,-10.499053399999998,-2.3463176,6.373137353642121,6.724651030546366,5.092683452463475,0.009577,-2.767697,0.995988,-15.638926,-21.08813,-11.247959,0,walking
-5.565082199999999,-12.703634,-0.5535392000000001,2.699318665981973,3.249775900998868,8.874923425186845,-2.480393,-9.279925,12.516887,-8.983044999999999,-17.630901,-12.124237,0,walking
-4.2789172,-4.535575799999999,0.1522712,3.46182944206733,7.419144528446235,1.6599686792458466,-1.288081,7.273585000000001,2.011129,-9.050082000000002,-12.349293,-2.461239,0,walking
-3.837426400000001,-10.2337756,3.733039199999999,3.217438970261643,1.9896246801532191,8.444468488749289,0.02873,-7.019799000000001,18.387468,-6.497863,-12.29662,-2.715025,0,walking
-4.8525678,-9.3843128,-2.9831752,3.573136930817681,5.1130883402443,6.034296767187391,-0.5841850000000001,-2.5187,1.80044,-9.931149,-15.394717000000002,-13.278243,0,walking
-9.2483226,-13.2724968,-0.8810659999999999,5.200059177439791,4.7893441462813255,6.073864532525071,-3.74932,-8.2169,2.949657,-15.638926,-21.08813,-11.247959,0,walking
-2.3664286,-10.0259586,0.1465252,2.033511483009452,5.4993414362918775,1.3077845836783288,0.009577,-2.767697,1.345541,-5.142745,-17.630901,-1.5610190000000002,0,walking
-4.62464,-8.851842600000001,0.0890644,3.4212720203573403,4.065927873102928,8.90673642137213,-1.288081,-2.801216,12.516887,-8.983044999999999,-13.872005,-12.124237,0,walking
-3.4687192,-3.0913934000000003,2.6709714,5.928932576254321,10.534870518168995,8.50920318988425,5.932832,9.083601,17.736245999999998,-9.050082000000002,-12.411542,-2.461239,0,walking
-3.503196,-12.1299834,0.3102883999999999,4.417614947173587,2.233220242400378,11.533061584775604,0.02873,-9.888053,18.387468,-9.931149,-15.394717000000002,-13.278243,0,walking
-5.8064178,-7.9219344,1.2775462,3.4779514973027874,3.809864340060457,1.7722509735820997,-2.700659,-2.5187,2.715025,-11.535264,-13.268666,-1.599327,0,walking
-6.803363599999999,-11.0516352,-1.5667654,6.3663239743748745,6.780586953238392,5.63017620767719,-1.240196,-2.767697,2.949657,-15.638926,-21.08813,-11.247959,0,walking
-4.047158399999999,-12.580093000000002,1.6816874000000002,3.340717884286669,3.3615334177318545,6.252009821798452,0.009577,-9.279925,12.516887,-8.983044999999999,-17.630901,-2.944868,0,walking
-5.4970870000000005,-8.101978800000001,-1.7803284,3.3027347709438466,3.6536681656265255,5.835869601307744,-1.288081,-2.801216,2.011129,-9.050082000000002,-12.349293,-12.124237,0,walking
-1.3426682,-2.6499024,1.5907075999999996,4.4977608622589305,10.351001257049498,9.142219752828812,5.932832,9.083601,17.736245999999998,-5.961562000000001,-12.411542,-4.630386,0,walking
-3.7148432,-10.0910812,-2.7839776,3.853008484617988,5.034211676101752,6.206928930379967,-0.5841850000000001,-2.5187,1.857901,-9.931149,-15.394717000000002,-13.278243,0,walking
-9.7281206,-12.5590246,-0.4223368,4.679133529375263,5.420751880648919,6.108393829247439,-3.74932,-7.517792999999999,2.949657,-15.638926,-21.08813,-11.247959,0,walking
-2.4382548,-9.8076076,0.1723824,2.095115100769693,5.413592762846667,1.2662001072284348,0.009577,-2.767697,1.345541,-5.142745,-17.630901,-1.431733,0,walking
-4.794149399999999,-10.7269812,-0.6253652,3.327460318538494,2.397516336901211,8.857146963791287,-1.288081,-7.747636999999999,12.516887,-8.983044999999999,-13.872005,-12.124237,0,walking
-5.213613400000001,-5.4683568,-0.474052,3.06002286593259,8.17829332130315,1.8468343180724145,-1.489193,7.273585000000001,2.011129,-9.050082000000002,-12.411542,-2.461239,0,walking
-0.7345409999999999,-5.415684199999999,2.0714632,3.851898698962371,8.610945286030141,8.907973230390578,5.932832,9.083601,17.736245999999998,-3.916914,-12.229582,-4.630386,0,walking
-7.042783599999998,-8.9591026,-1.9000384000000003,3.6579823887904106,4.5451598449510335,6.560767740447744,-2.700659,-2.5187,2.715025,-11.535264,-13.402741,-13.278243,0,walking
-7.3051884,-11.172303,-1.244027,5.899990078431005,6.709098366795199,5.855547099412957,-1.819593,-2.767697,2.949657,-15.638926,-21.08813,-11.247959,0,walking
-3.799119,-11.3284042,2.4698586,3.526976407143447,3.8846945473603465,5.751295654954656,0.009577,-7.613561,12.516887,-8.983044999999999,-17.630901,-1.5610190000000002,0,walking
-4.1831492,-8.406521199999998,-2.3645136,2.8052065154402093,4.128769741891245,5.761822488766883,-1.288081,-2.801216,2.011129,-7.580042,-13.872005,-12.124237,0,walking
-2.896983800000001,-4.126646200000001,2.5119964,5.662155875064833,11.25149867675292,8.572950928966133,5.932832,9.083601,17.736245999999998,-9.050082000000002,-12.411542,-2.461239,0,walking
-1.9469646,-9.9407254,2.2017078000000003,1.5066228941595836,3.586610279017404,10.340411784152128,0.019154,-4.965574,20.51352,-4.065354,-13.958196,-4.630386,0,walking
-7.140467200000001,-8.8451386,2.187343,4.139595626780555,4.37709769283001,0.857962424235176,-2.700659,-2.5187,2.949657,-11.535264,-13.268666,0.8619129999999999,0,walking
-4.537491,-10.499053399999998,-2.3463176,6.373137353642121,6.724651030546366,5.092683452463475,0.009577,-2.767697,0.995988,-15.638926,-21.08813,-11.247959,0,walking
-5.565082199999999,-12.703634,-0.5535392000000001,2.699318665981973,3.249775900998868,8.874923425186845,-2.480393,-9.279925,12.516887,-8.983044999999999,-17.630901,-12.124237,0,walking
-4.2789172,-4.535575799999999,0.1522712,3.46182944206733,7.419144528446235,1.6599686792458466,-1.288081,7.273585000000001,2.011129,-9.050082000000002,-12.349293,-2.461239,0,walking
-1.4317326,-5.6369084,1.8128893999999995,4.505789661013683,8.811949854136104,9.031961791191312,5.932832,9.083601,17.736245999999998,-5.961562000000001,-12.411542,-4.630386,0,walking
-4.4493842,-12.150095,0.5793967999999999,3.8713741370783583,1.0877613725355846,12.113909183771463,0.019154,-11.305421,20.51352,-10.376471,-13.958196,-12.555194,0,walking
-9.2483226,-13.2724968,-0.8810659999999999,5.200059177439791,4.7893441462813255,6.073864532525071,-3.74932,-8.2169,2.949657,-15.638926,-21.08813,-11.247959,0,walking
-2.3664286,-10.0259586,0.1465252,2.033511483009452,5.4993414362918775,1.3077845836783288,0.009577,-2.767697,1.345541,-5.142745,-17.630901,-1.5610190000000002,0,walking
-4.62464,-8.851842600000001,0.0890644,3.4212720203573403,4.065927873102928,8.90673642137213,-1.288081,-2.801216,12.516887,-8.983044999999999,-13.872005,-12.124237,0,walking
-3.4687192,-3.0913934000000003,2.6709714,5.928932576254321,10.534870518168995,8.50920318988425,5.932832,9.083601,17.736245999999998,-9.050082000000002,-12.411542,-2.461239,0,walking
-1.9172766,-9.5950026,2.626918,1.4550232199720388,3.160548465674637,10.131502072280002,0.019154,-4.965574,20.51352,-3.916914,-12.229582,-4.630386,0,walking
-4.9368438,-10.748050199999998,-5.125507000000001,3.354795551418924,2.63330789257992,5.778488713311596,-1.422156,-7.824250999999999,0.976834,-10.376471,-13.958196,-12.555194,0,walking
-2.8653804,-7.7782824,-1.5121778,1.915138557924544,5.124739168146492,2.930229624480085,-0.991199,0.292093,2.767697,-5.655104,-13.354857,-5.133168,0,walking
-4.8908752,-8.537723000000002,2.7763166,4.070102842525506,7.725543409269215,11.664402988090572,0.555455,5.214572,23.582888,-9.155427,-12.717999,-3.65834,0,walking
-4.7558422,-8.6440256,-2.3491908,1.8712990374666736,5.164998966980129,4.801080129259425,-2.37026,-1.192312,3.055001,-7.278372999999999,-14.686032999999998,-10.065224,0,walking
-3.7713464,-6.570647200000001,-3.2340876,2.1845502243175368,10.58167570165022,6.305122641145872,-1.388637,8.073248,2.9257150000000003,-7.206547,-15.710752,-13.814544,0,walking
-4.158249400000001,-4.802768599999999,0.0373498,2.2241209711062933,7.519993931551927,2.557763531228053,-1.666364,6.713342,3.098097,-7.120356,-11.913548,-2.451662,0,walking
-3.4332852000000003,-6.600334999999999,-1.6634908000000004,0.7951923978369638,7.435442782036722,3.8959062011990486,-2.494758,5.530606,3.495535,-4.19943,-13.292608,-6.574477000000001,0,walking
-6.803363599999999,-11.0516352,-1.5667654,6.3663239743748745,6.780586953238392,5.63017620767719,-1.240196,-2.767697,2.949657,-15.638926,-21.08813,-11.247959,0,walking
-4.047158399999999,-12.580093000000002,1.6816874000000002,3.340717884286669,3.3615334177318545,6.252009821798452,0.009577,-9.279925,12.516887,-8.983044999999999,-17.630901,-2.944868,0,walking
-5.4970870000000005,-8.101978800000001,-1.7803284,3.3027347709438466,3.6536681656265255,5.835869601307744,-1.288081,-2.801216,2.011129,-9.050082000000002,-12.349293,-12.124237,0,walking
-1.3426682,-2.6499024,1.5907075999999996,4.4977608622589305,10.351001257049498,9.142219752828812,5.932832,9.083601,17.736245999999998,-5.961562000000001,-12.411542,-4.630386,0,walking
-3.7665580000000007,-11.2211446,0.6167461999999997,3.9728701227228034,2.266151251247211,12.106037668647003,0.019154,-7.661445,20.51352,-10.376471,-13.958196,-12.555194,0,walking
-1.2794611999999996,-9.8650688,-2.3242908,3.2515626251762706,2.2980509123873207,4.418026358913921,2.37026,-7.824250999999999,0.976834,-5.348646,-12.430696,-9.840169,0,walking
-2.4382548,-9.8076076,0.1723824,2.095115100769693,5.413592762846667,1.2662001072284348,0.009577,-2.767697,1.345541,-5.142745,-17.630901,-1.431733,0,walking
-4.794149399999999,-10.7269812,-0.6253652,3.327460318538494,2.397516336901211,8.857146963791287,-1.288081,-7.747636999999999,12.516887,-8.983044999999999,-13.872005,-12.124237,0,walking
-5.213613400000001,-5.4683568,-0.474052,3.06002286593259,8.17829332130315,1.8468343180724145,-1.489193,7.273585000000001,2.011129,-9.050082000000002,-12.411542,-2.461239,0,walking
-0.7345409999999999,-5.415684199999999,2.0714632,3.851898698962371,8.610945286030141,8.907973230390578,5.932832,9.083601,17.736245999999998,-3.916914,-12.229582,-4.630386,0,walking
-4.6485818000000005,-11.453861,-1.2181697999999996,3.768687494546238,2.253255558442162,13.01295937799514,0.019154,-7.824250999999999,20.51352,-10.376471,-13.958196,-12.555194,0,walking
-1.049618,-10.1083198,-1.4690820000000002,2.9050920074217097,2.665040512950919,2.8259478847985684,2.37026,-7.809886,0.976834,-3.955221,-13.536817,-5.961562000000001,0,walking
-3.799119,-11.3284042,2.4698586,3.526976407143447,3.8846945473603465,5.751295654954656,0.009577,-7.613561,12.516887,-8.983044999999999,-17.630901,-1.5610190000000002,0,walking
-4.1831492,-8.406521199999998,-2.3645136,2.8052065154402093,4.128769741891245,5.761822488766883,-1.288081,-2.801216,2.011129,-7.580042,-13.872005,-12.124237,0,walking
-2.896983800000001,-4.126646200000001,2.5119964,5.662155875064833,11.25149867675292,8.572950928966133,5.932832,9.083601,17.736245999999998,-9.050082000000002,-12.411542,-2.461239,0,walking
-1.9469646,-9.9407254,2.2017078000000003,1.5066228941595836,3.586610279017404,10.340411784152128,0.019154,-4.965574,20.51352,-4.065354,-13.958196,-4.630386,0,walking
-3.828807400000001,-9.6524636,-4.423527,4.450559803217659,2.035529081419816,6.337248466248543,1.474828,-7.824250999999999,0.976834,-10.376471,-12.306197,-12.555194,0,walking
-2.2227768,-9.769301,-3.2091876,3.1698442216740244,4.176555164369674,2.030196603433594,2.37026,-3.371036,-1.13964,-5.449203,-13.536817,-5.961562000000001,0,walking
-5.565082199999999,-12.703634,-0.5535392000000001,2.699318665981973,3.249775900998868,8.874923425186845,-2.480393,-9.279925,12.516887,-8.983044999999999,-17.630901,-12.124237,0,walking
-4.2789172,-4.535575799999999,0.1522712,3.46182944206733,7.419144528446235,1.6599686792458466,-1.288081,7.273585000000001,2.011129,-9.050082000000002,-12.349293,-2.461239,0,walking
-1.4317326,-5.6369084,1.8128893999999995,4.505789661013683,8.811949854136104,9.031961791191312,5.932832,9.083601,17.736245999999998,-5.961562000000001,-12.411542,-4.630386,0,walking
-4.4493842,-12.150095,0.5793967999999999,3.8713741370783583,1.0877613725355846,12.113909183771463,0.019154,-11.305421,20.51352,-10.376471,-13.958196,-12.555194,0,walking
-0.9528921999999996,-10.1111928,-2.2448034,2.789932263849823,2.661949230459927,4.439254677011367,2.37026,-7.824250999999999,0.976834,-3.715801,-13.536817,-9.840169,0,walking
-2.9994558,-7.0983292,-2.6958709999999995,1.960588280216604,3.991190558998806,3.329114643501332,-0.363919,-2.63841,2.686294,-5.449203,-11.69807,-5.961562000000001,0,walking
-4.62464,-8.851842600000001,0.0890644,3.4212720203573403,4.065927873102928,8.90673642137213,-1.288081,-2.801216,12.516887,-8.983044999999999,-13.872005,-12.124237,0,walking
-3.4687192,-3.0913934000000003,2.6709714,5.928932576254321,10.534870518168995,8.50920318988425,5.932832,9.083601,17.736245999999998,-9.050082000000002,-12.411542,-2.461239,0,walking
-1.9172766,-9.5950026,2.626918,1.4550232199720388,3.160548465674637,10.131502072280002,0.019154,-4.965574,20.51352,-3.916914,-12.229582,-4.630386,0,walking
-4.9368438,-10.748050199999998,-5.125507000000001,3.354795551418924,2.63330789257992,5.778488713311596,-1.422156,-7.824250999999999,0.976834,-10.376471,-13.958196,-12.555194,0,walking
-0.8379705999999999,-10.7911464,-2.1001934,2.90971062710131,2.5138335272947767,2.4735350747546114,2.37026,-7.809886,0.8379709999999999,-3.955221,-13.536817,-5.961562000000001,0,walking
-5.3697154,-7.375098800000001,-1.844493,3.032698036822377,4.638837701117997,2.828147699885033,-1.833958,-2.63841,2.686294,-9.763555,-13.761871,-4.707,0,walking
-5.4970870000000005,-8.101978800000001,-1.7803284,3.3027347709438466,3.6536681656265255,5.835869601307744,-1.288081,-2.801216,2.011129,-9.050082000000002,-12.349293,-12.124237,0,walking
-1.3426682,-2.6499024,1.5907075999999996,4.4977608622589305,10.351001257049498,9.142219752828812,5.932832,9.083601,17.736245999999998,-5.961562000000001,-12.411542,-4.630386,0,walking
-3.7665580000000007,-11.2211446,0.6167461999999997,3.9728701227228034,2.266151251247211,12.106037668647003,0.019154,-7.661445,20.51352,-10.376471,-13.958196,-12.555194,0,walking
-1.2794611999999996,-9.8650688,-2.3242908,3.2515626251762706,2.2980509123873207,4.418026358913921,2.37026,-7.824250999999999,0.976834,-5.348646,-12.430696,-9.840169,0,walking
-3.3758244000000004,-9.278010599999998,-3.4610578,1.858905882940231,3.921944644103713,1.927343890044328,-0.363919,-3.371036,-1.13964,-5.449203,-13.536817,-5.961562000000001,0,walking
-5.6570194,-7.9611994,-4.1965566,2.9381582096169194,5.6051064153411305,6.993390918568781,-1.833958,-2.528277,2.686294,-9.763555,-13.761871,-15.897499,0,walking
-5.213613400000001,-5.4683568,-0.474052,3.06002286593259,8.17829332130315,1.8468343180724145,-1.489193,7.273585000000001,2.011129,-9.050082000000002,-12.411542,-2.461239,0,walking
-0.7345409999999999,-5.415684199999999,2.0714632,3.851898698962371,8.610945286030141,8.907973230390578,5.932832,9.083601,17.736245999999998,-3.916914,-12.229582,-4.630386,0,walking
-4.6485818000000005,-11.453861,-1.2181697999999996,3.768687494546238,2.253255558442162,13.01295937799514,0.019154,-7.824250999999999,20.51352,-10.376471,-13.958196,-12.555194,0,walking
-1.049618,-10.1083198,-1.4690820000000002,2.9050920074217097,2.665040512950919,2.8259478847985684,2.37026,-7.809886,0.976834,-3.955221,-13.536817,-5.961562000000001,0,walking
-3.4897882000000005,-6.9623386,-1.7448942000000005,2.493520067665929,3.972424537265346,2.8001424495629146,-0.363919,-2.63841,2.686294,-6.4068830000000005,-11.69807,-4.707,0,walking
-7.7083718,-11.9441932,-9.149681,4.333210986815632,5.362439327878144,8.009254080690193,-4.151545,-2.528277,-2.676717,-14.298173,-16.069881,-19.67555,0,walking
-2.896983800000001,-4.126646200000001,2.5119964,5.662155875064833,11.25149867675292,8.572950928966133,5.932832,9.083601,17.736245999999998,-9.050082000000002,-12.411542,-2.461239,0,walking
-1.9469646,-9.9407254,2.2017078000000003,1.5066228941595836,3.586610279017404,10.340411784152128,0.019154,-4.965574,20.51352,-4.065354,-13.958196,-4.630386,0,walking
-3.828807400000001,-9.6524636,-4.423527,4.450559803217659,2.035529081419816,6.337248466248543,1.474828,-7.824250999999999,0.976834,-10.376471,-12.306197,-12.555194,0,walking
-2.2227768,-9.769301,-3.2091876,3.1698442216740244,4.176555164369674,2.030196603433594,2.37026,-3.371036,-1.13964,-5.449203,-13.536817,-5.961562000000001,0,walking
-5.505706000000001,-7.206547,-4.0825928,3.0523349283834333,4.83198652154189,7.004306807005365,-1.833958,-2.528277,2.686294,-9.763555,-13.761871,-15.897499,0,walking
-7.0619372,-13.276327,-8.6095492,4.388545776003106,3.020375403951055,8.266536905072263,-4.151545,-8.169016000000001,-0.770933,-14.298173,-16.069881,-19.67555,0,walking
-1.4317326,-5.6369084,1.8128893999999995,4.505789661013683,8.811949854136104,9.031961791191312,5.932832,9.083601,17.736245999999998,-5.961562000000001,-12.411542,-4.630386,0,walking
-4.4493842,-12.150095,0.5793967999999999,3.8713741370783583,1.0877613725355846,12.113909183771463,0.019154,-11.305421,20.51352,-10.376471,-13.958196,-12.555194,0,walking
-0.9528921999999996,-10.1111928,-2.2448034,2.789932263849823,2.661949230459927,4.439254677011367,2.37026,-7.824250999999999,0.976834,-3.715801,-13.536817,-9.840169,0,walking
-2.9994558,-7.0983292,-2.6958709999999995,1.960588280216604,3.991190558998806,3.329114643501332,-0.363919,-2.63841,2.686294,-5.449203,-11.69807,-5.961562000000001,0,walking
-8.1498624,-10.6474936,-8.668925400000001,3.984767892121673,5.634860676135905,8.483001488844282,-4.151545,-2.528277,-1.206678,-14.298173,-16.069881,-19.67555,0,walking
-5.436753000000001,-9.4369852,-3.4849998,1.884726541301682,4.89130834676937,6.840777944762037,-3.74932,-2.662352,2.456451,-8.192958,-14.781801000000002,-15.102624,0,walking
-1.9172766,-9.5950026,2.626918,1.4550232199720388,3.160548465674637,10.131502072280002,0.019154,-4.965574,20.51352,-3.916914,-12.229582,-4.630386,0,walking
-4.9368438,-10.748050199999998,-5.125507000000001,3.354795551418924,2.63330789257992,5.778488713311596,-1.422156,-7.824250999999999,0.976834,-10.376471,-13.958196,-12.555194,0,walking
-0.8379705999999999,-10.7911464,-2.1001934,2.90971062710131,2.5138335272947767,2.4735350747546114,2.37026,-7.809886,0.8379709999999999,-3.955221,-13.536817,-5.961562000000001,0,walking
-5.3697154,-7.375098800000001,-1.844493,3.032698036822377,4.638837701117997,2.828147699885033,-1.833958,-2.63841,2.686294,-9.763555,-13.761871,-4.707,0,walking
-7.394252399999999,-12.1481792,-11.6348624,4.20192100822425,5.467244191128763,7.403550468822935,-4.151545,-2.528277,-3.610456,-14.298173,-16.069881,-19.67555,0,walking
-4.3095628,-4.7223232,1.8684352,4.104159116409804,7.854915762327988,4.337445553565393,2.106898,7.824250999999999,9.198523,-8.863335000000001,-12.646173,-1.144428,0,walking
-3.1067160000000005,-7.891288600000001,4.4800304,3.292666228838113,5.106088670025747,10.829356044620926,0.555455,0.292093,23.582888,-7.345411,-12.717999,-1.838747,0,walking
-5.7077768,-8.5597496,-3.8824374,2.94175375852504,7.966015247332213,3.584161414840897,-1.848324,5.214572,-1.388637,-9.155427,-14.686032999999998,-10.065224,0,walking
-3.7761348,-6.3484652000000015,-0.6167464,1.4026571835575858,6.418657541765506,2.267275756083785,-2.37026,1.244985,3.055001,-5.473145,-13.469779,-2.5378540000000003,0,walking
-3.3882741999999992,-6.156929,-2.4717738,2.4153747981416256,9.628240676079717,6.76825335865718,-1.388637,8.073248,2.9257150000000003,-7.206547,-15.710752,-13.814544,0,walking
-4.924394,-4.3239284,-0.8121127999999999,1.3919256810945404,9.69216173447507,2.72320946098766,-3.691859,6.713342,3.098097,-7.120356,-13.292608,-3.888183,0,walking
-3.5922600000000005,-7.1126942,-0.5516236,2.701827460558964,2.911716562573476,3.931435627482765,-0.751779,-4.189853,3.495535,-7.934384,-11.932701,-6.574477000000001,0,walking
-3.7665580000000007,-11.2211446,0.6167461999999997,3.9728701227228034,2.266151251247211,12.106037668647003,0.019154,-7.661445,20.51352,-10.376471,-13.958196,-12.555194,0,walking
-1.2794611999999996,-9.8650688,-2.3242908,3.2515626251762706,2.2980509123873207,4.418026358913921,2.37026,-7.824250999999999,0.976834,-5.348646,-12.430696,-9.840169,0,walking
-3.3758244000000004,-9.278010599999998,-3.4610578,1.858905882940231,3.921944644103713,1.927343890044328,-0.363919,-3.371036,-1.13964,-5.449203,-13.536817,-5.961562000000001,0,walking
-5.6570194,-7.9611994,-4.1965566,2.9381582096169194,5.6051064153411305,6.993390918568781,-1.833958,-2.528277,2.686294,-9.763555,-13.761871,-15.897499,0,walking
-6.9814922,-11.0592962,-7.340622399999999,4.458363743518714,5.575594096888035,9.55846110946727,-3.74932,-2.662352,2.456451,-14.298173,-16.069881,-19.67555,0,walking
-5.841852,-10.127472999999998,-0.7268795999999998,6.575429987773309,12.07193233948822,6.981879399452006,2.106898,7.824250999999999,9.198523,-14.69561,-25.809494,-10.534488,0,walking
-4.6485818000000005,-11.453861,-1.2181697999999996,3.768687494546238,2.253255558442162,13.01295937799514,0.019154,-7.824250999999999,20.51352,-10.376471,-13.958196,-12.555194,0,walking
-1.049618,-10.1083198,-1.4690820000000002,2.9050920074217097,2.665040512950919,2.8259478847985684,2.37026,-7.809886,0.976834,-3.955221,-13.536817,-5.961562000000001,0,walking
-3.4897882000000005,-6.9623386,-1.7448942000000005,2.493520067665929,3.972424537265346,2.8001424495629146,-0.363919,-2.63841,2.686294,-6.4068830000000005,-11.69807,-4.707,0,walking
-7.7083718,-11.9441932,-9.149681,4.333210986815632,5.362439327878144,8.009254080690193,-4.151545,-2.528277,-2.676717,-14.298173,-16.069881,-19.67555,0,walking
-6.369534,-9.2435336,-2.9917942,2.239914650636158,4.70023027575036,6.9179341177776985,-3.74932,-2.662352,2.456451,-8.863335000000001,-14.781801000000002,-15.102624,0,walking
-3.4237084,-9.2109726,-0.7354987999999999,6.504544229217624,12.30987426256679,6.992476524967938,2.106898,7.824250999999999,9.198523,-14.69561,-25.809494,-10.534488,0,walking
-3.828807400000001,-9.6524636,-4.423527,4.450559803217659,2.035529081419816,6.337248466248543,1.474828,-7.824250999999999,0.976834,-10.376471,-12.306197,-12.555194,0,walking
-2.2227768,-9.769301,-3.2091876,3.1698442216740244,4.176555164369674,2.030196603433594,2.37026,-3.371036,-1.13964,-5.449203,-13.536817,-5.961562000000001,0,walking
-5.505706000000001,-7.206547,-4.0825928,3.0523349283834333,4.83198652154189,7.004306807005365,-1.833958,-2.528277,2.686294,-9.763555,-13.761871,-15.897499,0,walking
-7.0619372,-13.276327,-8.6095492,4.388545776003106,3.020375403951055,8.266536905072263,-4.151545,-8.169016000000001,-0.770933,-14.298173,-16.069881,-19.67555,0,walking
-3.652594,-5.4980446,1.8713082,4.329276053570447,8.449414387744472,4.33526446006385,2.106898,7.824250999999999,9.198523,-8.863335000000001,-12.646173,-1.144428,0,walking
-4.2999864,-11.987288799999998,-3.0540438,5.820982281630851,8.251778308274265,4.229803805547924,-1.201889,-4.170699,-0.134075,-14.69561,-25.809494,-10.534488,0,walking
-0.9528921999999996,-10.1111928,-2.2448034,2.789932263849823,2.661949230459927,4.439254677011367,2.37026,-7.824250999999999,0.976834,-3.715801,-13.536817,-9.840169,0,walking
-2.9994558,-7.0983292,-2.6958709999999995,1.960588280216604,3.991190558998806,3.329114643501332,-0.363919,-2.63841,2.686294,-5.449203,-11.69807,-5.961562000000001,0,walking
-8.1498624,-10.6474936,-8.668925400000001,3.984767892121673,5.634860676135905,8.483001488844282,-4.151545,-2.528277,-1.206678,-14.298173,-16.069881,-19.67555,0,walking
-5.436753000000001,-9.4369852,-3.4849998,1.884726541301682,4.89130834676937,6.840777944762037,-3.74932,-2.662352,2.456451,-8.192958,-14.781801000000002,-15.102624,0,walking
-4.767334400000001,-10.9060674,-0.6742071999999999,6.858656847073434,12.022494846756905,6.9859783272002565,2.106898,7.824250999999999,9.198523,-14.69561,-25.809494,-10.534488,0,walking
-1.9325998,-11.0257776,-0.8274362,1.0339048559955604,5.470292326744459,2.481505372561119,-0.593762,-4.170699,3.452439,-3.466804,-17.769766,-2.987964,0,walking
-0.8379705999999999,-10.7911464,-2.1001934,2.90971062710131,2.5138335272947767,2.4735350747546114,2.37026,-7.809886,0.8379709999999999,-3.955221,-13.536817,-5.961562000000001,0,walking
-5.3697154,-7.375098800000001,-1.844493,3.032698036822377,4.638837701117997,2.828147699885033,-1.833958,-2.63841,2.686294,-9.763555,-13.761871,-4.707,0,walking
-7.394252399999999,-12.1481792,-11.6348624,4.20192100822425,5.467244191128763,7.403550468822935,-4.151545,-2.528277,-3.610456,-14.298173,-16.069881,-19.67555,0,walking
-4.3095628,-4.7223232,1.8684352,4.104159116409804,7.854915762327988,4.337445553565393,2.106898,7.824250999999999,9.198523,-8.863335000000001,-12.646173,-1.144428,0,walking
-4.195599200000001,-12.3425884,-2.9429528,5.883503392454083,8.197478484175504,4.293804067090707,-1.182736,-4.170699,-0.134075,-14.69561,-25.809494,-10.534488,0,walking
-2.7188556000000004,-14.966633600000003,-4.027047400000001,2.654681411645718,3.175413126319361,6.892943007624414,-0.593762,-10.271125,3.452439,-7.015011,-17.956512,-15.2367,0,walking
-3.3758244000000004,-9.278010599999998,-3.4610578,1.858905882940231,3.921944644103713,1.927343890044328,-0.363919,-3.371036,-1.13964,-5.449203,-13.536817,-5.961562000000001,0,walking
-5.6570194,-7.9611994,-4.1965566,2.9381582096169194,5.6051064153411305,6.993390918568781,-1.833958,-2.528277,2.686294,-9.763555,-13.761871,-15.897499,0,walking
-6.9814922,-11.0592962,-7.340622399999999,4.458363743518714,5.575594096888035,9.55846110946727,-3.74932,-2.662352,2.456451,-14.298173,-16.069881,-19.67555,0,walking
-5.841852,-10.127472999999998,-0.7268795999999998,6.575429987773309,12.07193233948822,6.981879399452006,2.106898,7.824250999999999,9.198523,-14.69561,-25.809494,-10.534488,0,walking
-2.0542252000000003,-10.3793432,-0.2566583999999999,0.8578060581953826,5.045384566869973,2.1688365861924224,-1.201889,-4.170699,3.452439,-3.466804,-17.769766,-1.838747,0,walking
-2.6384102,-13.856681600000002,-7.874050800000001,3.621115748805429,2.830509859345009,5.963537587147305,1.197101,-11.03727,-2.987964,-7.015011,-17.956512,-15.2367,0,walking
-3.4897882000000005,-6.9623386,-1.7448942000000005,2.493520067665929,3.972424537265346,2.8001424495629146,-0.363919,-2.63841,2.686294,-6.4068830000000005,-11.69807,-4.707,0,walking
-7.7083718,-11.9441932,-9.149681,4.333210986815632,5.362439327878144,8.009254080690193,-4.151545,-2.528277,-2.676717,-14.298173,-16.069881,-19.67555,0,walking
-6.369534,-9.2435336,-2.9917942,2.239914650636158,4.70023027575036,6.9179341177776985,-3.74932,-2.662352,2.456451,-8.863335000000001,-14.781801000000002,-15.102624,0,walking
-3.4237084,-9.2109726,-0.7354987999999999,6.504544229217624,12.30987426256679,6.992476524967938,2.106898,7.824250999999999,9.198523,-14.69561,-25.809494,-10.534488,0,walking
-2.906561,-13.782940200000002,-3.584599,2.5158764647879672,4.54779180639156,6.96167967757333,-0.593762,-7.833828,3.452439,-7.015011,-17.956512,-15.2367,0,walking
-2.5991452,-9.6371408,-4.187937799999999,2.9020850376620086,4.052574834135911,5.604687306827625,1.197101,-3.08852,1.13964,-5.96635,-13.752295000000002,-13.479356,0,walking
-5.505706000000001,-7.206547,-4.0825928,3.0523349283834333,4.83198652154189,7.004306807005365,-1.833958,-2.528277,2.686294,-9.763555,-13.761871,-15.897499,0,walking
-7.0619372,-13.276327,-8.6095492,4.388545776003106,3.020375403951055,8.266536905072263,-4.151545,-8.169016000000001,-0.770933,-14.298173,-16.069881,-19.67555,0,walking
-3.652594,-5.4980446,1.8713082,4.329276053570447,8.449414387744472,4.33526446006385,2.106898,7.824250999999999,9.198523,-8.863335000000001,-12.646173,-1.144428,0,walking
-4.2999864,-11.987288799999998,-3.0540438,5.820982281630851,8.251778308274265,4.229803805547924,-1.201889,-4.170699,-0.134075,-14.69561,-25.809494,-10.534488,0,walking
-3.5711912,-15.203180800000002,-6.460514000000001,2.918672866978021,2.754314412367568,7.7848672939218115,-0.593762,-11.453861,3.452439,-7.015011,-17.956512,-15.2367,0,walking
-4.0145972,-9.7444008,-1.5217546000000002,3.416331272860801,4.3668597837651255,4.234109562661942,1.197101,-3.08852,3.342306,-7.082048,-15.102624,-7.541735000000001,0,walking
-8.1498624,-10.6474936,-8.668925400000001,3.984767892121673,5.634860676135905,8.483001488844282,-4.151545,-2.528277,-1.206678,-14.298173,-16.069881,-19.67555,0,walking
-5.436753000000001,-9.4369852,-3.4849998,1.884726541301682,4.89130834676937,6.840777944762037,-3.74932,-2.662352,2.456451,-8.192958,-14.781801000000002,-15.102624,0,walking
-4.767334400000001,-10.9060674,-0.6742071999999999,6.858656847073434,12.022494846756905,6.9859783272002565,2.106898,7.824250999999999,9.198523,-14.69561,-25.809494,-10.534488,0,walking
-1.9325998,-11.0257776,-0.8274362,1.0339048559955604,5.470292326744459,2.481505372561119,-0.593762,-4.170699,3.452439,-3.466804,-17.769766,-2.987964,0,walking
-3.0463822,-11.4576916,-7.04853,3.4437315504465067,5.42493487565144,7.003935980539478,1.197101,-3.08852,1.13964,-7.015011,-17.956512,-15.2367,0,walking
-4.6849736,-10.6503668,-2.0705054000000005,2.2758384913930736,3.406006624386277,4.180431868112349,-2.173935,-6.17704,3.342306,-7.082048,-15.102624,-7.541735000000001,0,walking
-7.394252399999999,-12.1481792,-11.6348624,4.20192100822425,5.467244191128763,7.403550468822935,-4.151545,-2.528277,-3.610456,-14.298173,-16.069881,-19.67555,0,walking
-4.3095628,-4.7223232,1.8684352,4.104159116409804,7.854915762327988,4.337445553565393,2.106898,7.824250999999999,9.198523,-8.863335000000001,-12.646173,-1.144428,0,walking
-4.195599200000001,-12.3425884,-2.9429528,5.883503392454083,8.197478484175504,4.293804067090707,-1.182736,-4.170699,-0.134075,-14.69561,-25.809494,-10.534488,0,walking
-2.7188556000000004,-14.966633600000003,-4.027047400000001,2.654681411645718,3.175413126319361,6.892943007624414,-0.593762,-10.271125,3.452439,-7.015011,-17.956512,-15.2367,0,walking
-3.7914576,-9.9072066,-2.709278799999999,3.195168447834684,4.423397619001236,6.546062437669511,1.197101,-3.08852,3.342306,-6.775591,-15.102624,-13.479356,0,walking
-3.0482974,-8.1019784,-1.922065,2.369450516375537,3.645783805364396,4.122726906071454,-0.814029,-3.217807,2.624045,-7.082048,-12.47858,-7.541735000000001,0,walking
-5.6522312,-7.304230200000001,3.3212368,3.697687170901049,7.388684035063227,11.347997677427864,0.555455,5.214572,23.582888,-9.155427,-12.717999,-2.8155810000000003,0,walking
-4.113238600000001,-8.813535,-2.573288,2.252924508963915,5.306767004850174,4.838095226426047,-1.848324,-1.192312,3.055001,-7.278372999999999,-14.686032999999998,-10.065224,0,walking
-3.3423054,-5.790137400000001,-0.9787496,1.417051809006749,9.858143079242016,2.351819625407591,-1.388637,8.073248,2.9257150000000003,-5.061342,-13.469779,-2.5378540000000003,0,walking
-4.1754876,-9.2875874,-3.3451784000000004,2.252965453972009,5.291420770487526,6.153615206362743,-1.666364,-1.335964,2.48997,-7.206547,-15.710752,-13.814544,0,walking
-4.358404800000001,-3.8039074,-1.7429784,1.6555777092802682,9.471672977903207,3.766228892852876,-2.686294,6.713342,3.098097,-7.120356,-13.292608,-6.574477000000001,0,walking
-4.381389,-5.4741028,1.3713988,4.229241957906169,7.518793276649165,1.8114685013186675,-0.751779,5.602432,3.495535,-9.849746,-15.380351999999998,-1.086968,0,walking
1.6165651999999997,-8.9370764,0.1254562,2.5812862147824096,3.627414949481421,1.4639261663447034,4.563349,-5.544971,2.312799,-2.351106,-14.432248,-1.441309,0,walking
5.5325214,-11.5036602,-3.3279404,0.7239251838935428,1.7226927287703393,3.5405571620118352,6.540959,-9.495404,0.632069,4.644751,-13.977348999999998,-7.785944000000001,0,walking
0.6588844,-8.190085199999999,3.2178067999999995,2.371363630195146,4.639189072854888,9.2593113489264,3.974375,-2.15957,19.589357,-2.389413,-12.737153,-2.384625,0,walking
0.4807557999999999,-8.8968536,-3.0559590000000005,4.145710170936361,7.075859699631155,7.735734121289362,7.527369999999999,-2.442086,1.958457,-2.964022,-20.058622,-16.682798000000002,0,walking
-1.2114660000000004,-11.1703872,-0.8398856000000002,4.512042208531244,9.106230014510764,17.007972080143748,4.276045,3.423709,21.648373,-5.837064,-19.268536,-26.3027,0,walking
-4.0347086,-9.8171846,-0.6004655999999999,3.4672995845939387,4.967010589586587,2.412028886109016,-0.871489,-3.878607,3.246538,-9.504981,-17.650055,-3.428497,0,walking
-6.9814922,-11.0592962,-7.340622399999999,4.458363743518714,5.575594096888035,9.55846110946727,-3.74932,-2.662352,2.456451,-14.298173,-16.069881,-19.67555,0,walking
-5.841852,-10.127472999999998,-0.7268795999999998,6.575429987773309,12.07193233948822,6.981879399452006,2.106898,7.824250999999999,9.198523,-14.69561,-25.809494,-10.534488,0,walking
-2.0542252000000003,-10.3793432,-0.2566583999999999,0.8578060581953826,5.045384566869973,2.1688365861924224,-1.201889,-4.170699,3.452439,-3.466804,-17.769766,-1.838747,0,walking
-2.6384102,-13.856681600000002,-7.874050800000001,3.621115748805429,2.830509859345009,5.963537587147305,1.197101,-11.03727,-2.987964,-7.015011,-17.956512,-15.2367,0,walking
-4.776911,-10.0326628,-0.9011774000000002,2.155123515263337,4.518478939600272,4.074964179937942,-2.614468,-3.08852,3.342306,-7.082048,-15.102624,-7.541735000000001,0,walking
-2.6221294000000004,-6.004657400000001,-0.6023812,2.3321305561933707,1.7910386603650683,2.6802385478516086,-0.814029,-3.217807,2.624045,-6.574477000000001,-7.996633,-4.707,0,walking
-6.369534,-9.2435336,-2.9917942,2.239914650636158,4.70023027575036,6.9179341177776985,-3.74932,-2.662352,2.456451,-8.863335000000001,-14.781801000000002,-15.102624,0,walking
-3.4237084,-9.2109726,-0.7354987999999999,6.504544229217624,12.30987426256679,6.992476524967938,2.106898,7.824250999999999,9.198523,-14.69561,-25.809494,-10.534488,0,walking
-2.906561,-13.782940200000002,-3.584599,2.5158764647879672,4.54779180639156,6.96167967757333,-0.593762,-7.833828,3.452439,-7.015011,-17.956512,-15.2367,0,walking
-2.5991452,-9.6371408,-4.187937799999999,2.9020850376620086,4.052574834135911,5.604687306827625,1.197101,-3.08852,1.13964,-5.96635,-13.752295000000002,-13.479356,0,walking
-4.2406098,-10.4789418,-1.7784128,2.462209424460214,3.538046486034094,4.328129350218718,-2.173935,-6.17704,3.342306,-7.082048,-15.102624,-7.541735000000001,0,walking
-2.0714630000000005,-7.708371599999999,-0.479798,2.5667951639241693,3.746743620959713,1.889792237011916,-0.287304,-3.217807,2.624045,-6.574477000000001,-12.890382,-2.475604,0,walking
-3.652594,-5.4980446,1.8713082,4.329276053570447,8.449414387744472,4.33526446006385,2.106898,7.824250999999999,9.198523,-8.863335000000001,-12.646173,-1.144428,0,walking
-4.2999864,-11.987288799999998,-3.0540438,5.820982281630851,8.251778308274265,4.229803805547924,-1.201889,-4.170699,-0.134075,-14.69561,-25.809494,-10.534488,0,walking
-3.5711912,-15.203180800000002,-6.460514000000001,2.918672866978021,2.754314412367568,7.7848672939218115,-0.593762,-11.453861,3.452439,-7.015011,-17.956512,-15.2367,0,walking
-4.0145972,-9.7444008,-1.5217546000000002,3.416331272860801,4.3668597837651255,4.234109562661942,1.197101,-3.08852,3.342306,-7.082048,-15.102624,-7.541735000000001,0,walking
-2.9467832,-7.369352599999999,-0.617704,2.154556567060657,3.365590558821482,2.679266556629911,-0.814029,-3.217807,2.624045,-6.574477000000001,-12.47858,-4.707,0,walking
-3.367205,-10.0307474,-4.5461102,3.892734005946784,3.348937246375901,8.729634038809229,-0.287304,-5.655104,1.249773,-9.868899,-13.728353,-19.977219,0,walking
-4.767334400000001,-10.9060674,-0.6742071999999999,6.858656847073434,12.022494846756905,6.9859783272002565,2.106898,7.824250999999999,9.198523,-14.69561,-25.809494,-10.534488,0,walking
-1.9325998,-11.0257776,-0.8274362,1.0339048559955604,5.470292326744459,2.481505372561119,-0.593762,-4.170699,3.452439,-3.466804,-17.769766,-2.987964,0,walking
-3.0463822,-11.4576916,-7.04853,3.4437315504465067,5.42493487565144,7.003935980539478,1.197101,-3.08852,1.13964,-7.015011,-17.956512,-15.2367,0,walking
-4.6849736,-10.6503668,-2.0705054000000005,2.2758384913930736,3.406006624386277,4.180431868112349,-2.173935,-6.17704,3.342306,-7.082048,-15.102624,-7.541735000000001,0,walking
-2.5254036,-6.729621799999999,0.1206676,2.365162201160377,2.479539172852024,1.5421015740875503,-0.814029,-3.217807,2.624045,-6.574477000000001,-9.801862,-1.091756,0,walking
-3.0578744,-9.4934884,-3.319321,4.116498903628641,3.745478704183926,9.52075407637381,-0.105345,-4.754884,2.676718,-9.868899,-13.728353,-19.977219,0,walking
-4.195599200000001,-12.3425884,-2.9429528,5.883503392454083,8.197478484175504,4.293804067090707,-1.182736,-4.170699,-0.134075,-14.69561,-25.809494,-10.534488,0,walking
